timestamp,gyro_x,gyro_y,gyro_z,time
1757494192,0.061035,-0.854492,0.183105,2025-09-10 08:49:52
1757494194,0.061035,-0.854492,0.183105,2025-09-10 08:49:54
1757494194,0.061035,-0.854492,0.183105,2025-09-10 08:49:54
1757494194,0.061035,-0.915527,0.183105,2025-09-10 08:49:54
1757494195,0.061035,-0.854492,0.183105,2025-09-10 08:49:55
1757494195,0.061035,-0.915527,0.183105,2025-09-10 08:49:55
1757494195,0.061035,-0.854492,0.183105,2025-09-10 08:49:55
1757494196,0.061035,-0.854492,0.183105,2025-09-10 08:49:56
1757494196,0.061035,-0.854492,0.183105,2025-09-10 08:49:56
1757494196,0.061035,-0.854492,0.183105,2025-09-10 08:49:56
1757494197,0.061035,-0.854492,0.12207,2025-09-10 08:49:57
1757494197,0.061035,-0.854492,0.183105,2025-09-10 08:49:57
1757494197,0.12207,-0.915527,0.183105,2025-09-10 08:49:57
1757494197,0.061035,-0.915527,0.183105,2025-09-10 08:49:57
1757494198,0.061035,-0.854492,0.183105,2025-09-10 08:49:58
1757494198,0.061035,-0.854492,0.183105,2025-09-10 08:49:58
1757494199,0.061035,-0.915527,0.183105,2025-09-10 08:49:59
1757494199,0.061035,-0.854492,0.183105,2025-09-10 08:49:59
1757494199,0.061035,-0.854492,0.183105,2025-09-10 08:49:59
1757494199,0.12207,-0.915527,0.183105,2025-09-10 08:49:59
1757494200,0.061035,-0.915527,0.183105,2025-09-10 08:50:00
1757494200,0.12207,-0.854492,0.183105,2025-09-10 08:50:00
1757494200,0.061035,-0.915527,0.183105,2025-09-10 08:50:00
1757494201,0.061035,-0.854492,0.183105,2025-09-10 08:50:01
1757494201,0.061035,-0.915527,0.183105,2025-09-10 08:50:01
1757494201,0.061035,-0.915527,0.12207,2025-09-10 08:50:01
1757494201,0.061035,-0.854492,0.183105,2025-09-10 08:50:01
1757494202,0.061035,-0.854492,0.12207,2025-09-10 08:50:02
1757494202,0.061035,-0.854492,0.183105,2025-09-10 08:50:02
1757494202,0.061035,-0.854492,0.183105,2025-09-10 08:50:02
1757494203,0.061035,-0.854492,0.183105,2025-09-10 08:50:03
1757494203,0.061035,-0.854492,0.183105,2025-09-10 08:50:03
1757494203,0.061035,-0.854492,0.183105,2025-09-10 08:50:03
1757494204,0.061035,-0.854492,0.183105,2025-09-10 08:50:04
1757494204,0.061035,-0.854492,0.183105,2025-09-10 08:50:04
1757494204,0.061035,-0.854492,0.183105,2025-09-10 08:50:04
1757494204,0.061035,-0.915527,0.183105,2025-09-10 08:50:04
1757494205,0.061035,-0.915527,0.183105,2025-09-10 08:50:05
1757494205,0.0,-0.854492,0.183105,2025-09-10 08:50:05
1757494205,0.061035,-0.915527,0.183105,2025-09-10 08:50:05
1757494206,0.12207,-0.854492,0.183105,2025-09-10 08:50:06
1757494206,0.061035,-0.915527,0.183105,2025-09-10 08:50:06
1757494206,0.061035,-0.854492,0.183105,2025-09-10 08:50:06
1757494206,0.061035,-0.854492,0.183105,2025-09-10 08:50:06
1757494207,0.061035,-0.854492,0.183105,2025-09-10 08:50:07
1757494207,0.061035,-0.854492,0.183105,2025-09-10 08:50:07
1757494207,0.061035,-0.915527,0.183105,2025-09-10 08:50:07
1757494208,0.061035,-0.854492,0.183105,2025-09-10 08:50:08
1757494208,0.061035,-0.915527,0.183105,2025-09-10 08:50:08
1757494208,0.061035,-0.854492,0.183105,2025-09-10 08:50:08
1757494208,0.061035,-0.854492,0.183105,2025-09-10 08:50:08
1757494209,0.061035,-0.854492,0.183105,2025-09-10 08:50:09
1757494209,0.0,-0.854492,0.183105,2025-09-10 08:50:09
1757494209,0.061035,-0.915527,0.183105,2025-09-10 08:50:09
1757494210,0.0,-0.854492,0.183105,2025-09-10 08:50:10
1757494210,0.0,-0.854492,0.183105,2025-09-10 08:50:10
1757494210,0.061035,-0.854492,0.183105,2025-09-10 08:50:10
1757494210,0.061035,-0.854492,0.183105,2025-09-10 08:50:10
1757494211,0.061035,-0.854492,0.183105,2025-09-10 08:50:11
1757494211,0.061035,-0.915527,0.183105,2025-09-10 08:50:11
1757494211,0.061035,-0.915527,0.183105,2025-09-10 08:50:11
1757494212,0.061035,-0.915527,0.183105,2025-09-10 08:50:12
1757494212,0.061035,-0.915527,0.183105,2025-09-10 08:50:12
1757494212,0.061035,-0.854492,0.183105,2025-09-10 08:50:12
1757494212,0.061035,-0.854492,0.183105,2025-09-10 08:50:12
1757494213,0.061035,-0.854492,0.183105,2025-09-10 08:50:13
1757494213,0.061035,-0.854492,0.183105,2025-09-10 08:50:13
1757494213,0.061035,-0.854492,0.183105,2025-09-10 08:50:13
1757494214,0.061035,-0.915527,0.183105,2025-09-10 08:50:14
1757494214,0.061035,-0.854492,0.183105,2025-09-10 08:50:14
1757494214,0.061035,-0.854492,0.183105,2025-09-10 08:50:14
1757494215,0.061035,-0.915527,0.183105,2025-09-10 08:50:15
1757494215,0.12207,-0.915527,0.183105,2025-09-10 08:50:15
1757494215,0.061035,-0.915527,0.183105,2025-09-10 08:50:15
1757494215,0.061035,-0.854492,0.12207,2025-09-10 08:50:15
1757494216,0.061035,-0.854492,0.183105,2025-09-10 08:50:16
1757494216,0.061035,-0.854492,0.183105,2025-09-10 08:50:16
1757494216,0.061035,-0.854492,0.183105,2025-09-10 08:50:16
1757494217,0.061035,-0.854492,0.183105,2025-09-10 08:50:17
1757494217,0.061035,-0.854492,0.183105,2025-09-10 08:50:17
1757494217,0.061035,-0.854492,0.183105,2025-09-10 08:50:17
1757494217,0.061035,-0.854492,0.183105,2025-09-10 08:50:17
1757494218,0.12207,-0.915527,0.183105,2025-09-10 08:50:18
1757494218,0.061035,-0.854492,0.183105,2025-09-10 08:50:18
1757494218,0.061035,-0.854492,0.183105,2025-09-10 08:50:18
1757494219,0.061035,-0.854492,0.183105,2025-09-10 08:50:19
1757494219,0.061035,-0.854492,0.183105,2025-09-10 08:50:19
1757494219,0.12207,-0.915527,0.183105,2025-09-10 08:50:19
1757494219,0.061035,-0.854492,0.183105,2025-09-10 08:50:19
1757494220,0.061035,-0.915527,0.183105,2025-09-10 08:50:20
1757494220,0.061035,-0.915527,0.183105,2025-09-10 08:50:20
1757494220,0.061035,-0.854492,0.183105,2025-09-10 08:50:20
1757494221,0.061035,-0.915527,0.183105,2025-09-10 08:50:21
1757494221,0.061035,-0.854492,0.183105,2025-09-10 08:50:21
1757494221,0.061035,-0.854492,0.183105,2025-09-10 08:50:21
1757494221,0.061035,-0.854492,0.183105,2025-09-10 08:50:21
1757494222,0.061035,-0.915527,0.183105,2025-09-10 08:50:22
1757494222,0.061035,-0.854492,0.183105,2025-09-10 08:50:22
1757494222,0.061035,-0.854492,0.183105,2025-09-10 08:50:22
1757494223,0.061035,-0.854492,0.12207,2025-09-10 08:50:23
1757494223,0.0,-0.854492,0.183105,2025-09-10 08:50:23
1757494223,0.061035,-0.854492,0.183105,2025-09-10 08:50:23
1757494223,0.061035,-0.915527,0.12207,2025-09-10 08:50:23
1757494224,0.061035,-0.915527,0.183105,2025-09-10 08:50:24
1757494224,0.061035,-0.915527,0.183105,2025-09-10 08:50:24
1757494224,0.061035,-0.854492,0.183105,2025-09-10 08:50:24
1757494225,0.061035,-0.854492,0.12207,2025-09-10 08:50:25
1757494225,0.061035,-0.915527,0.183105,2025-09-10 08:50:25
1757494225,0.061035,-0.854492,0.183105,2025-09-10 08:50:25
1757494226,0.0,-0.854492,0.183105,2025-09-10 08:50:26
1757494226,0.061035,-0.854492,0.183105,2025-09-10 08:50:26
1757494226,0.061035,-0.854492,0.183105,2025-09-10 08:50:26
1757494226,0.061035,-0.915527,0.183105,2025-09-10 08:50:26
1757494227,0.061035,-0.854492,0.183105,2025-09-10 08:50:27
1757494227,0.061035,-0.915527,0.183105,2025-09-10 08:50:27
1757494227,0.061035,-0.854492,0.183105,2025-09-10 08:50:27
1757494228,0.061035,-0.854492,0.183105,2025-09-10 08:50:28
1757494228,0.061035,-0.854492,0.183105,2025-09-10 08:50:28
1757494228,0.061035,-0.854492,0.183105,2025-09-10 08:50:28
1757494228,0.061035,-0.915527,0.183105,2025-09-10 08:50:28
1757494229,0.061035,-0.915527,0.183105,2025-09-10 08:50:29
1757494229,0.061035,-0.854492,0.183105,2025-09-10 08:50:29
1757494229,0.061035,-0.854492,0.183105,2025-09-10 08:50:29
1757494230,0.061035,-0.854492,0.183105,2025-09-10 08:50:30
1757494230,0.061035,-0.915527,0.183105,2025-09-10 08:50:30
1757494230,0.061035,-0.915527,0.183105,2025-09-10 08:50:30
1757494230,0.061035,-0.854492,0.183105,2025-09-10 08:50:30
1757494231,0.061035,-0.854492,0.183105,2025-09-10 08:50:31
1757494231,0.061035,-0.854492,0.183105,2025-09-10 08:50:31
1757494231,0.061035,-0.915527,0.12207,2025-09-10 08:50:31
1757494232,0.12207,-0.854492,0.183105,2025-09-10 08:50:32
1757494232,0.061035,-0.854492,0.183105,2025-09-10 08:50:32
1757494232,0.061035,-0.854492,0.183105,2025-09-10 08:50:32
1757494232,0.061035,-0.854492,0.183105,2025-09-10 08:50:32
1757494233,0.12207,-0.854492,0.183105,2025-09-10 08:50:33
1757494233,0.061035,-0.854492,0.183105,2025-09-10 08:50:33
1757494233,0.061035,-0.854492,0.183105,2025-09-10 08:50:33
1757494234,0.061035,-0.854492,0.183105,2025-09-10 08:50:34
1757494234,0.061035,-0.854492,0.183105,2025-09-10 08:50:34
1757494234,0.061035,-0.854492,0.183105,2025-09-10 08:50:34
1757494234,0.061035,-0.854492,0.183105,2025-09-10 08:50:34
1757494235,0.061035,-0.854492,0.183105,2025-09-10 08:50:35
1757494235,0.061035,-0.854492,0.183105,2025-09-10 08:50:35
1757494235,0.061035,-0.915527,0.183105,2025-09-10 08:50:35
1757494236,0.061035,-0.854492,0.183105,2025-09-10 08:50:36
1757494236,0.061035,-0.915527,0.183105,2025-09-10 08:50:36
1757494236,0.061035,-0.854492,0.183105,2025-09-10 08:50:36
1757494236,0.061035,-0.854492,0.183105,2025-09-10 08:50:36
1757494237,0.061035,-0.854492,0.183105,2025-09-10 08:50:37
1757494237,0.061035,-0.915527,0.12207,2025-09-10 08:50:37
1757494237,0.061035,-0.854492,0.183105,2025-09-10 08:50:37
1757494238,0.061035,-0.854492,0.183105,2025-09-10 08:50:38
1757494238,0.061035,-0.915527,0.183105,2025-09-10 08:50:38
1757494238,0.0,-0.854492,0.183105,2025-09-10 08:50:38
1757494238,0.061035,-0.854492,0.183105,2025-09-10 08:50:38
1757494239,0.0,-0.854492,0.183105,2025-09-10 08:50:39
1757494239,0.061035,-0.854492,0.183105,2025-09-10 08:50:39
1757494239,0.061035,-0.854492,0.183105,2025-09-10 08:50:39
1757494240,0.061035,-0.915527,0.183105,2025-09-10 08:50:40
1757494240,0.061035,-0.854492,0.183105,2025-09-10 08:50:40
1757494240,0.061035,-0.915527,0.183105,2025-09-10 08:50:40
1757494240,0.061035,-0.915527,0.183105,2025-09-10 08:50:40
1757494241,0.061035,-0.854492,0.183105,2025-09-10 08:50:41
1757494241,0.061035,-0.854492,0.12207,2025-09-10 08:50:41
1757494241,0.061035,-0.854492,0.12207,2025-09-10 08:50:41
1757494242,0.061035,-0.854492,0.183105,2025-09-10 08:50:42
1757494242,0.061035,-0.854492,0.183105,2025-09-10 08:50:42
1757494242,0.061035,-0.915527,0.183105,2025-09-10 08:50:42
1757494242,0.061035,-0.854492,0.183105,2025-09-10 08:50:42
1757494243,0.061035,-0.854492,0.183105,2025-09-10 08:50:43
1757494243,0.061035,-0.854492,0.183105,2025-09-10 08:50:43
1757494243,0.061035,-0.915527,0.183105,2025-09-10 08:50:43
1757494244,0.061035,-0.915527,0.183105,2025-09-10 08:50:44
1757494244,0.061035,-0.915527,0.183105,2025-09-10 08:50:44
1757494244,0.061035,-0.854492,0.183105,2025-09-10 08:50:44
1757494244,0.061035,-0.854492,0.183105,2025-09-10 08:50:44
1757494245,0.061035,-0.854492,0.183105,2025-09-10 08:50:45
1757494245,0.061035,-0.915527,0.183105,2025-09-10 08:50:45
1757494245,0.061035,-0.854492,0.183105,2025-09-10 08:50:45
1757494246,0.061035,-0.854492,0.183105,2025-09-10 08:50:46
1757494246,0.061035,-0.854492,0.183105,2025-09-10 08:50:46
1757494246,0.061035,-0.854492,0.183105,2025-09-10 08:50:46
1757494246,0.061035,-0.915527,0.183105,2025-09-10 08:50:46
1757494247,0.061035,-0.854492,0.183105,2025-09-10 08:50:47
1757494247,0.061035,-0.854492,0.183105,2025-09-10 08:50:47
1757494247,0.061035,-0.854492,0.183105,2025-09-10 08:50:47
1757494248,0.12207,-0.854492,0.183105,2025-09-10 08:50:48
1757494248,0.061035,-0.854492,0.183105,2025-09-10 08:50:48
1757494248,0.061035,-0.854492,0.183105,2025-09-10 08:50:48
1757494248,0.061035,-0.854492,0.183105,2025-09-10 08:50:48
1757494249,0.061035,-0.915527,0.183105,2025-09-10 08:50:49
1757494249,0.061035,-0.854492,0.183105,2025-09-10 08:50:49
1757494249,0.061035,-0.854492,0.183105,2025-09-10 08:50:49
1757494250,0.061035,-0.854492,0.183105,2025-09-10 08:50:50
1757494250,0.12207,-0.915527,0.183105,2025-09-10 08:50:50
1757494250,0.061035,-0.915527,0.183105,2025-09-10 08:50:50
1757494250,0.061035,-0.854492,0.183105,2025-09-10 08:50:50
1757494251,0.061035,-0.854492,0.183105,2025-09-10 08:50:51
1757494251,0.061035,-0.915527,0.183105,2025-09-10 08:50:51
1757494251,0.061035,-0.915527,0.183105,2025-09-10 08:50:51
1757494252,0.061035,-0.854492,0.183105,2025-09-10 08:50:52
1757494252,0.061035,-0.854492,0.183105,2025-09-10 08:50:52
1757494252,0.12207,-0.854492,0.183105,2025-09-10 08:50:52
1757494252,0.061035,-0.854492,0.183105,2025-09-10 08:50:52
1757494253,0.061035,-0.854492,0.12207,2025-09-10 08:50:53
1757494253,0.0,-0.915527,0.183105,2025-09-10 08:50:53
1757494253,0.061035,-0.854492,0.12207,2025-09-10 08:50:53
1757494254,0.061035,-0.915527,0.183105,2025-09-10 08:50:54
1757494254,0.061035,-0.915527,0.183105,2025-09-10 08:50:54
1757494254,0.061035,-0.854492,0.183105,2025-09-10 08:50:54
1757494254,0.061035,-0.854492,0.183105,2025-09-10 08:50:54
1757494255,0.061035,-0.915527,0.183105,2025-09-10 08:50:55
1757494255,0.061035,-0.854492,0.183105,2025-09-10 08:50:55
1757494255,0.061035,-0.854492,0.183105,2025-09-10 08:50:55
1757494256,0.061035,-0.854492,0.183105,2025-09-10 08:50:56
1757494256,0.061035,-0.854492,0.183105,2025-09-10 08:50:56
1757494256,0.0,-0.854492,0.183105,2025-09-10 08:50:56
1757494256,0.061035,-0.854492,0.183105,2025-09-10 08:50:56
1757494257,0.061035,-0.854492,0.183105,2025-09-10 08:50:57
1757494257,0.061035,-0.854492,0.183105,2025-09-10 08:50:57
1757494257,0.12207,-0.854492,0.183105,2025-09-10 08:50:57
1757494258,0.061035,-0.854492,0.183105,2025-09-10 08:50:58
1757494258,0.061035,-0.854492,0.183105,2025-09-10 08:50:58
1757494258,0.061035,-0.854492,0.12207,2025-09-10 08:50:58
1757494258,0.061035,-0.854492,0.183105,2025-09-10 08:50:58
1757494259,0.061035,-0.915527,0.12207,2025-09-10 08:50:59
1757494259,0.061035,-0.915527,0.183105,2025-09-10 08:50:59
1757494259,0.061035,-0.915527,0.183105,2025-09-10 08:50:59
1757494260,0.061035,-0.854492,0.183105,2025-09-10 08:51:00
1757494260,0.061035,-0.854492,0.183105,2025-09-10 08:51:00
1757494260,0.061035,-0.915527,0.183105,2025-09-10 08:51:00
1757494260,0.061035,-0.854492,0.183105,2025-09-10 08:51:00
1757494261,0.061035,-0.854492,0.183105,2025-09-10 08:51:01
1757494261,0.061035,-0.915527,0.183105,2025-09-10 08:51:01
1757494261,0.12207,-0.854492,0.183105,2025-09-10 08:51:01
1757494262,0.061035,-0.915527,0.183105,2025-09-10 08:51:02
1757494262,0.0,-0.854492,0.183105,2025-09-10 08:51:02
1757494262,0.12207,-0.915527,0.183105,2025-09-10 08:51:02
1757494262,0.061035,-0.915527,0.12207,2025-09-10 08:51:02
1757494263,0.061035,-0.915527,0.183105,2025-09-10 08:51:03
1757494263,0.061035,-0.854492,0.183105,2025-09-10 08:51:03
1757494263,0.12207,-0.854492,0.183105,2025-09-10 08:51:03
1757494264,0.061035,-0.915527,0.183105,2025-09-10 08:51:04
1757494264,0.061035,-0.854492,0.183105,2025-09-10 08:51:04
1757494264,0.061035,-0.915527,0.183105,2025-09-10 08:51:04
1757494264,0.061035,-0.915527,0.183105,2025-09-10 08:51:04
1757494265,0.061035,-0.854492,0.183105,2025-09-10 08:51:05
1757494265,0.12207,-0.854492,0.183105,2025-09-10 08:51:05
1757494265,0.061035,-0.915527,0.183105,2025-09-10 08:51:05
1757494266,0.061035,-0.915527,0.183105,2025-09-10 08:51:06
1757494266,0.061035,-0.854492,0.183105,2025-09-10 08:51:06
1757494266,0.061035,-0.854492,0.183105,2025-09-10 08:51:06
1757494266,0.12207,-0.915527,0.183105,2025-09-10 08:51:06
1757494267,0.061035,-0.915527,0.183105,2025-09-10 08:51:07
1757494267,0.12207,-0.854492,0.183105,2025-09-10 08:51:07
1757494267,0.061035,-0.854492,0.183105,2025-09-10 08:51:07
1757494268,0.061035,-0.854492,0.183105,2025-09-10 08:51:08
1757494268,0.061035,-0.854492,0.183105,2025-09-10 08:51:08
1757494268,0.061035,-0.854492,0.183105,2025-09-10 08:51:08
1757494268,0.061035,-0.854492,0.183105,2025-09-10 08:51:08
1757494269,0.061035,-0.854492,0.183105,2025-09-10 08:51:09
1757494269,0.061035,-0.854492,0.183105,2025-09-10 08:51:09
1757494269,0.061035,-0.915527,0.183105,2025-09-10 08:51:09
1757494270,0.061035,-0.915527,0.183105,2025-09-10 08:51:10
1757494270,0.061035,-0.915527,0.183105,2025-09-10 08:51:10
1757494270,0.061035,-0.915527,0.183105,2025-09-10 08:51:10
1757494270,0.061035,-0.854492,0.12207,2025-09-10 08:51:10
1757494271,0.061035,-0.854492,0.183105,2025-09-10 08:51:11
1757494271,0.061035,-0.854492,0.183105,2025-09-10 08:51:11
1757494271,0.061035,-0.854492,0.183105,2025-09-10 08:51:11
1757494272,0.061035,-0.854492,0.12207,2025-09-10 08:51:12
1757494272,0.061035,-0.854492,0.183105,2025-09-10 08:51:12
1757494272,0.061035,-0.854492,0.12207,2025-09-10 08:51:12
1757494272,0.061035,-0.854492,0.183105,2025-09-10 08:51:12
1757494273,0.061035,-0.854492,0.183105,2025-09-10 08:51:13
1757494273,0.061035,-0.854492,0.183105,2025-09-10 08:51:13
1757494273,0.061035,-0.854492,0.183105,2025-09-10 08:51:13
1757494274,0.061035,-0.915527,0.183105,2025-09-10 08:51:14
1757494274,0.061035,-0.915527,0.12207,2025-09-10 08:51:14
1757494274,0.061035,-0.854492,0.183105,2025-09-10 08:51:14
1757494274,0.061035,-0.854492,0.183105,2025-09-10 08:51:14
1757494275,0.061035,-0.854492,0.183105,2025-09-10 08:51:15
1757494275,0.061035,-0.915527,0.183105,2025-09-10 08:51:15
1757494275,0.061035,-0.854492,0.183105,2025-09-10 08:51:15
1757494276,0.061035,-0.854492,0.183105,2025-09-10 08:51:16
1757494276,0.061035,-0.854492,0.183105,2025-09-10 08:51:16
1757494276,0.061035,-0.915527,0.183105,2025-09-10 08:51:16
1757494276,0.061035,-0.854492,0.183105,2025-09-10 08:51:16
1757494277,0.061035,-0.854492,0.183105,2025-09-10 08:51:17
1757494277,0.061035,-0.854492,0.183105,2025-09-10 08:51:17
1757494277,0.061035,-0.854492,0.183105,2025-09-10 08:51:17
1757494278,0.061035,-0.854492,0.183105,2025-09-10 08:51:18
1757494278,0.061035,-0.854492,0.183105,2025-09-10 08:51:18
1757494278,0.061035,-0.915527,0.183105,2025-09-10 08:51:18
1757494278,0.061035,-0.854492,0.183105,2025-09-10 08:51:18
1757494279,0.061035,-0.854492,0.183105,2025-09-10 08:51:19
1757494279,0.061035,-0.915527,0.183105,2025-09-10 08:51:19
1757494279,0.061035,-0.854492,0.183105,2025-09-10 08:51:19
1757494280,0.061035,-0.854492,0.12207,2025-09-10 08:51:20
1757494280,0.061035,-0.915527,0.183105,2025-09-10 08:51:20
1757494280,0.061035,-0.854492,0.183105,2025-09-10 08:51:20
1757494280,0.12207,-0.915527,0.183105,2025-09-10 08:51:20
1757494281,0.061035,-0.915527,0.183105,2025-09-10 08:51:21
1757494281,0.061035,-0.854492,0.183105,2025-09-10 08:51:21
1757494281,0.061035,-0.854492,0.183105,2025-09-10 08:51:21
1757494282,0.061035,-0.915527,0.183105,2025-09-10 08:51:22
1757494282,0.061035,-0.854492,0.183105,2025-09-10 08:51:22
1757494282,0.061035,-0.854492,0.183105,2025-09-10 08:51:22
1757494282,0.061035,-0.915527,0.183105,2025-09-10 08:51:22
1757494283,0.061035,-0.854492,0.183105,2025-09-10 08:51:23
1757494283,0.061035,-0.854492,0.183105,2025-09-10 08:51:23
1757494283,0.061035,-0.854492,0.183105,2025-09-10 08:51:23
1757494283,0.061035,-0.915527,0.183105,2025-09-10 08:51:23
1757494284,0.061035,-0.915527,0.244141,2025-09-10 08:51:24
1757494284,0.061035,-0.854492,0.183105,2025-09-10 08:51:24
1757494284,0.061035,-0.915527,0.183105,2025-09-10 08:51:24
1757494285,0.061035,-0.854492,0.183105,2025-09-10 08:51:25
1757494285,0.061035,-0.915527,0.183105,2025-09-10 08:51:25
1757494285,0.061035,-0.854492,0.183105,2025-09-10 08:51:25
1757494285,0.061035,-0.854492,0.12207,2025-09-10 08:51:25
1757494286,0.061035,-0.915527,0.183105,2025-09-10 08:51:26
1757494286,0.061035,-0.854492,0.183105,2025-09-10 08:51:26
1757494286,0.061035,-0.854492,0.183105,2025-09-10 08:51:26
1757494287,0.061035,-0.854492,0.183105,2025-09-10 08:51:27
1757494287,0.061035,-0.854492,0.183105,2025-09-10 08:51:27
1757494287,0.061035,-0.854492,0.183105,2025-09-10 08:51:27
1757494287,0.061035,-0.915527,0.183105,2025-09-10 08:51:27
1757494288,0.061035,-0.854492,0.183105,2025-09-10 08:51:28
1757494288,0.061035,-0.915527,0.183105,2025-09-10 08:51:28
1757494288,0.061035,-0.854492,0.183105,2025-09-10 08:51:28
1757494289,0.061035,-0.854492,0.183105,2025-09-10 08:51:29
1757494289,0.061035,-0.854492,0.183105,2025-09-10 08:51:29
1757494289,0.061035,-0.854492,0.183105,2025-09-10 08:51:29
1757494290,0.061035,-0.854492,0.183105,2025-09-10 08:51:30
1757494290,0.061035,-0.854492,0.183105,2025-09-10 08:51:30
1757494290,0.061035,-0.915527,0.183105,2025-09-10 08:51:30
1757494291,0.061035,-0.915527,0.183105,2025-09-10 08:51:31
1757494291,0.061035,-0.854492,0.183105,2025-09-10 08:51:31
1757494291,0.061035,-0.854492,0.183105,2025-09-10 08:51:31
1757494291,0.061035,-0.854492,0.183105,2025-09-10 08:51:31
1757494292,0.061035,-0.854492,0.183105,2025-09-10 08:51:32
1757494292,0.061035,-0.854492,0.183105,2025-09-10 08:51:32
1757494292,0.061035,-0.854492,0.183105,2025-09-10 08:51:32
1757494293,0.061035,-0.854492,0.183105,2025-09-10 08:51:33
1757494293,0.061035,-0.854492,0.183105,2025-09-10 08:51:33
1757494293,0.061035,-0.854492,0.183105,2025-09-10 08:51:33
1757494294,0.061035,-0.854492,0.183105,2025-09-10 08:51:34
1757494294,0.061035,-0.854492,0.183105,2025-09-10 08:51:34
1757494294,0.061035,-0.854492,0.183105,2025-09-10 08:51:34
1757494294,0.061035,-0.854492,0.183105,2025-09-10 08:51:34
1757494295,0.061035,-0.854492,0.183105,2025-09-10 08:51:35
1757494295,0.061035,-0.854492,0.12207,2025-09-10 08:51:35
1757494295,0.061035,-0.915527,0.183105,2025-09-10 08:51:35
1757494296,0.061035,-0.854492,0.12207,2025-09-10 08:51:36
1757494296,0.061035,-0.854492,0.183105,2025-09-10 08:51:36
1757494296,0.061035,-0.915527,0.244141,2025-09-10 08:51:36
1757494296,0.061035,-0.915527,0.183105,2025-09-10 08:51:36
1757494297,0.061035,-0.854492,0.183105,2025-09-10 08:51:37
1757494297,0.061035,-0.915527,0.183105,2025-09-10 08:51:37
1757494297,0.061035,-0.854492,0.183105,2025-09-10 08:51:37
1757494298,0.061035,-0.915527,0.183105,2025-09-10 08:51:38
1757494298,0.061035,-0.915527,0.183105,2025-09-10 08:51:38
1757494298,0.061035,-0.915527,0.183105,2025-09-10 08:51:38
1757494299,0.061035,-0.915527,0.183105,2025-09-10 08:51:39
1757494299,0.061035,-0.854492,0.183105,2025-09-10 08:51:39
1757494299,0.061035,-0.854492,0.183105,2025-09-10 08:51:39
1757494299,0.061035,-0.854492,0.183105,2025-09-10 08:51:39
1757494300,0.061035,-0.854492,0.183105,2025-09-10 08:51:40
1757494300,0.12207,-0.915527,0.183105,2025-09-10 08:51:40
1757494300,0.061035,-0.854492,0.183105,2025-09-10 08:51:40
1757494301,0.061035,-0.854492,0.183105,2025-09-10 08:51:41
1757494301,0.061035,-0.854492,0.183105,2025-09-10 08:51:41
1757494301,0.061035,-0.915527,0.183105,2025-09-10 08:51:41
1757494301,0.061035,-0.854492,0.183105,2025-09-10 08:51:41
1757494302,0.061035,-0.854492,0.183105,2025-09-10 08:51:42
1757494302,0.061035,-0.854492,0.183105,2025-09-10 08:51:42
1757494302,0.061035,-0.854492,0.183105,2025-09-10 08:51:42
1757494303,0.061035,-0.854492,0.183105,2025-09-10 08:51:43
1757494303,0.061035,-0.854492,0.183105,2025-09-10 08:51:43
1757494303,0.061035,-0.854492,0.183105,2025-09-10 08:51:43
1757494303,0.061035,-0.854492,0.183105,2025-09-10 08:51:43
1757494304,0.061035,-0.854492,0.183105,2025-09-10 08:51:44
1757494304,0.061035,-0.854492,0.183105,2025-09-10 08:51:44
1757494304,0.0,-0.854492,0.183105,2025-09-10 08:51:44
1757494305,0.061035,-0.854492,0.183105,2025-09-10 08:51:45
1757494305,0.061035,-0.915527,0.183105,2025-09-10 08:51:45
1757494305,0.12207,-0.854492,0.12207,2025-09-10 08:51:45
1757494305,0.061035,-0.915527,0.183105,2025-09-10 08:51:45
1757494306,0.0,-0.915527,0.183105,2025-09-10 08:51:46
1757494306,0.061035,-0.915527,0.183105,2025-09-10 08:51:46
1757494306,0.061035,-0.915527,0.183105,2025-09-10 08:51:46
1757494307,0.061035,-0.854492,0.183105,2025-09-10 08:51:47
1757494307,0.061035,-0.854492,0.183105,2025-09-10 08:51:47
1757494307,0.061035,-0.854492,0.183105,2025-09-10 08:51:47
1757494307,0.0,-0.854492,0.183105,2025-09-10 08:51:47
1757494308,0.061035,-0.915527,0.183105,2025-09-10 08:51:48
1757494308,0.061035,-0.854492,0.183105,2025-09-10 08:51:48
1757494308,0.061035,-0.854492,0.183105,2025-09-10 08:51:48
1757494309,0.061035,-0.915527,0.183105,2025-09-10 08:51:49
1757494309,0.061035,-0.915527,0.183105,2025-09-10 08:51:49
1757494309,0.061035,-0.915527,0.183105,2025-09-10 08:51:49
1757494309,0.061035,-0.854492,0.183105,2025-09-10 08:51:49
1757494310,0.12207,-0.915527,0.183105,2025-09-10 08:51:50
1757494310,0.061035,-0.854492,0.183105,2025-09-10 08:51:50
1757494310,0.061035,-0.915527,0.244141,2025-09-10 08:51:50
1757494311,0.061035,-0.915527,0.183105,2025-09-10 08:51:51
1757494311,0.061035,-0.915527,0.12207,2025-09-10 08:51:51
1757494311,0.061035,-0.793457,0.12207,2025-09-10 08:51:51
1757494311,0.061035,-0.854492,0.183105,2025-09-10 08:51:51
1757494312,0.061035,-0.854492,0.183105,2025-09-10 08:51:52
1757494312,0.061035,-0.854492,0.183105,2025-09-10 08:51:52
1757494312,0.061035,-0.854492,0.183105,2025-09-10 08:51:52
1757494313,0.061035,-0.854492,0.183105,2025-09-10 08:51:53
1757494313,0.061035,-0.915527,0.183105,2025-09-10 08:51:53
1757494313,0.061035,-0.854492,0.183105,2025-09-10 08:51:53
1757494314,0.061035,-0.854492,0.183105,2025-09-10 08:51:54
1757494314,0.061035,-0.854492,0.183105,2025-09-10 08:51:54
1757494314,0.061035,-0.854492,0.183105,2025-09-10 08:51:54
1757494314,0.061035,-0.854492,0.183105,2025-09-10 08:51:54
1757494315,0.061035,-0.915527,0.183105,2025-09-10 08:51:55
1757494315,0.0,-0.854492,0.12207,2025-09-10 08:51:55
1757494315,0.12207,-0.854492,0.183105,2025-09-10 08:51:55
1757494315,0.061035,-0.854492,0.183105,2025-09-10 08:51:55
1757494316,0.061035,-0.854492,0.183105,2025-09-10 08:51:56
1757494316,0.12207,-0.915527,0.183105,2025-09-10 08:51:56
1757494316,0.061035,-0.854492,0.183105,2025-09-10 08:51:56
1757494317,0.061035,-0.854492,0.183105,2025-09-10 08:51:57
1757494317,0.061035,-0.854492,0.12207,2025-09-10 08:51:57
1757494317,0.061035,-0.854492,0.183105,2025-09-10 08:51:57
1757494317,0.061035,-0.915527,0.183105,2025-09-10 08:51:57
1757494318,0.061035,-0.915527,0.183105,2025-09-10 08:51:58
1757494318,0.061035,-0.854492,0.183105,2025-09-10 08:51:58
1757494318,0.12207,-0.915527,0.183105,2025-09-10 08:51:58
1757494319,0.061035,-0.854492,0.183105,2025-09-10 08:51:59
1757494319,0.061035,-0.854492,0.183105,2025-09-10 08:51:59
1757494319,0.061035,-0.915527,0.183105,2025-09-10 08:51:59
1757494319,0.061035,-0.854492,0.183105,2025-09-10 08:51:59
1757494320,0.061035,-0.915527,0.183105,2025-09-10 08:52:00
1757494320,0.12207,-0.854492,0.183105,2025-09-10 08:52:00
1757494320,0.061035,-0.915527,0.183105,2025-09-10 08:52:00
1757494321,0.061035,-0.854492,0.183105,2025-09-10 08:52:01
1757494321,0.061035,-0.854492,0.183105,2025-09-10 08:52:01
1757494321,0.061035,-0.915527,0.183105,2025-09-10 08:52:01
1757494322,0.12207,-0.854492,0.183105,2025-09-10 08:52:02
1757494322,0.061035,-0.854492,0.183105,2025-09-10 08:52:02
1757494322,0.12207,-0.915527,0.183105,2025-09-10 08:52:02
1757494322,0.061035,-0.854492,0.183105,2025-09-10 08:52:02
1757494323,0.061035,-0.915527,0.183105,2025-09-10 08:52:03
1757494323,0.061035,-0.854492,0.183105,2025-09-10 08:52:03
1757494323,0.061035,-0.854492,0.183105,2025-09-10 08:52:03
1757494324,0.061035,-0.854492,0.183105,2025-09-10 08:52:04
1757494324,0.061035,-0.854492,0.183105,2025-09-10 08:52:04
1757494324,0.061035,-0.915527,0.183105,2025-09-10 08:52:04
1757494324,0.0,-0.915527,0.183105,2025-09-10 08:52:04
1757494325,0.061035,-0.915527,0.183105,2025-09-10 08:52:05
1757494325,0.061035,-0.915527,0.183105,2025-09-10 08:52:05
1757494325,0.061035,-0.915527,0.183105,2025-09-10 08:52:05
1757494326,0.061035,-0.915527,0.183105,2025-09-10 08:52:06
1757494326,0.061035,-0.854492,0.183105,2025-09-10 08:52:06
1757494326,0.061035,-0.915527,0.183105,2025-09-10 08:52:06
1757494326,0.061035,-0.915527,0.183105,2025-09-10 08:52:06
1757494327,0.12207,-0.915527,0.183105,2025-09-10 08:52:07
1757494327,0.061035,-0.854492,0.183105,2025-09-10 08:52:07
1757494327,0.061035,-0.854492,0.183105,2025-09-10 08:52:07
1757494328,0.061035,-0.854492,0.183105,2025-09-10 08:52:08
1757494328,0.061035,-0.854492,0.183105,2025-09-10 08:52:08
1757494328,0.061035,-0.854492,0.183105,2025-09-10 08:52:08
1757494328,0.12207,-0.915527,0.183105,2025-09-10 08:52:08
1757494329,0.061035,-0.854492,0.183105,2025-09-10 08:52:09
1757494329,0.12207,-0.854492,0.183105,2025-09-10 08:52:09
1757494329,0.061035,-0.915527,0.183105,2025-09-10 08:52:09
1757494330,0.061035,-0.915527,0.183105,2025-09-10 08:52:10
1757494330,0.061035,-0.915527,0.183105,2025-09-10 08:52:10
1757494330,0.061035,-0.915527,0.183105,2025-09-10 08:52:10
1757494330,0.061035,-0.915527,0.183105,2025-09-10 08:52:10
1757494331,0.061035,-0.915527,0.183105,2025-09-10 08:52:11
1757494331,0.061035,-0.854492,0.183105,2025-09-10 08:52:11
1757494332,0.12207,-0.915527,0.12207,2025-09-10 08:52:12
1757494332,0.061035,-0.915527,0.183105,2025-09-10 08:52:12
1757494332,0.061035,-0.854492,0.183105,2025-09-10 08:52:12
1757494332,0.061035,-0.854492,0.183105,2025-09-10 08:52:12
1757494333,0.061035,-0.854492,0.183105,2025-09-10 08:52:13
1757494333,0.061035,-0.854492,0.183105,2025-09-10 08:52:13
1757494333,0.0,-0.854492,0.183105,2025-09-10 08:52:13
1757494334,0.061035,-0.854492,0.183105,2025-09-10 08:52:14
1757494334,0.12207,-0.915527,0.183105,2025-09-10 08:52:14
1757494334,0.061035,-0.915527,0.183105,2025-09-10 08:52:14
1757494334,0.061035,-0.854492,0.183105,2025-09-10 08:52:14
1757494335,0.061035,-0.854492,0.183105,2025-09-10 08:52:15
1757494335,0.061035,-0.915527,0.183105,2025-09-10 08:52:15
1757494335,0.061035,-0.854492,0.12207,2025-09-10 08:52:15
1757494336,0.12207,-0.854492,0.183105,2025-09-10 08:52:16
1757494336,0.061035,-0.854492,0.183105,2025-09-10 08:52:16
1757494336,0.061035,-0.915527,0.183105,2025-09-10 08:52:16
1757494336,0.061035,-0.915527,0.12207,2025-09-10 08:52:16
1757494337,0.061035,-0.854492,0.183105,2025-09-10 08:52:17
1757494337,0.061035,-0.854492,0.183105,2025-09-10 08:52:17
1757494337,0.061035,-0.915527,0.12207,2025-09-10 08:52:17
1757494338,0.061035,-0.854492,0.183105,2025-09-10 08:52:18
1757494338,0.061035,-0.854492,0.183105,2025-09-10 08:52:18
1757494338,0.12207,-0.915527,0.12207,2025-09-10 08:52:18
1757494338,0.061035,-0.854492,0.183105,2025-09-10 08:52:18
1757494339,0.061035,-0.854492,0.183105,2025-09-10 08:52:19
1757494339,0.061035,-0.854492,0.183105,2025-09-10 08:52:19
1757494339,0.061035,-0.854492,0.12207,2025-09-10 08:52:19
1757494340,0.061035,-0.854492,0.183105,2025-09-10 08:52:20
1757494340,0.061035,-0.854492,0.12207,2025-09-10 08:52:20
1757494340,0.061035,-0.854492,0.183105,2025-09-10 08:52:20
1757494340,0.0,-0.854492,0.183105,2025-09-10 08:52:20
1757494341,0.061035,-0.854492,0.183105,2025-09-10 08:52:21
1757494341,0.061035,-0.854492,0.183105,2025-09-10 08:52:21
1757494341,0.061035,-0.854492,0.183105,2025-09-10 08:52:21
1757494342,0.061035,-0.854492,0.12207,2025-09-10 08:52:22
1757494342,0.061035,-0.854492,0.12207,2025-09-10 08:52:22
1757494342,0.061035,-0.854492,0.183105,2025-09-10 08:52:22
1757494342,0.12207,-0.854492,0.183105,2025-09-10 08:52:22
1757494343,0.061035,-0.854492,0.183105,2025-09-10 08:52:23
1757494343,0.061035,-0.915527,0.183105,2025-09-10 08:52:23
1757494343,0.061035,-0.854492,0.183105,2025-09-10 08:52:23
1757494344,0.061035,-0.915527,0.183105,2025-09-10 08:52:24
1757494344,0.061035,-0.854492,0.183105,2025-09-10 08:52:24
1757494344,0.061035,-0.854492,0.183105,2025-09-10 08:52:24
1757494344,0.061035,-0.854492,0.183105,2025-09-10 08:52:24
1757494345,0.061035,-0.854492,0.12207,2025-09-10 08:52:25
1757494345,0.12207,-0.915527,0.183105,2025-09-10 08:52:25
1757494345,0.061035,-0.915527,0.183105,2025-09-10 08:52:25
1757494346,0.061035,-0.915527,0.183105,2025-09-10 08:52:26
1757494346,0.061035,-0.854492,0.12207,2025-09-10 08:52:26
1757494346,0.0,-0.854492,0.183105,2025-09-10 08:52:26
1757494346,0.12207,-0.915527,0.183105,2025-09-10 08:52:26
1757494347,0.061035,-0.854492,0.12207,2025-09-10 08:52:27
1757494347,0.061035,-0.915527,0.183105,2025-09-10 08:52:27
1757494347,0.061035,-0.854492,0.183105,2025-09-10 08:52:27
1757494348,0.12207,-0.854492,0.12207,2025-09-10 08:52:28
1757494348,0.061035,-0.915527,0.183105,2025-09-10 08:52:28
1757494348,0.061035,-0.915527,0.183105,2025-09-10 08:52:28
1757494348,0.061035,-0.915527,0.183105,2025-09-10 08:52:28
1757494349,0.061035,-0.854492,0.183105,2025-09-10 08:52:29
1757494349,0.061035,-0.854492,0.183105,2025-09-10 08:52:29
1757494349,0.061035,-0.854492,0.183105,2025-09-10 08:52:29
1757494350,0.12207,-0.915527,0.183105,2025-09-10 08:52:30
1757494350,0.061035,-0.854492,0.183105,2025-09-10 08:52:30
1757494350,0.061035,-0.854492,0.183105,2025-09-10 08:52:30
1757494350,0.061035,-0.854492,0.183105,2025-09-10 08:52:30
1757494351,0.061035,-0.915527,0.183105,2025-09-10 08:52:31
1757494351,0.061035,-0.854492,0.183105,2025-09-10 08:52:31
1757494351,0.061035,-0.915527,0.183105,2025-09-10 08:52:31
1757494352,0.061035,-0.854492,0.183105,2025-09-10 08:52:32
1757494352,0.061035,-0.915527,0.183105,2025-09-10 08:52:32
1757494352,0.061035,-0.854492,0.183105,2025-09-10 08:52:32
1757494352,0.061035,-0.854492,0.12207,2025-09-10 08:52:32
1757494353,0.061035,-0.854492,0.183105,2025-09-10 08:52:33
1757494353,0.061035,-0.915527,0.183105,2025-09-10 08:52:33
1757494353,0.061035,-0.854492,0.183105,2025-09-10 08:52:33
1757494354,0.061035,-0.854492,0.12207,2025-09-10 08:52:34
1757494354,0.061035,-0.915527,0.183105,2025-09-10 08:52:34
1757494354,0.061035,-0.854492,0.183105,2025-09-10 08:52:34
1757494354,0.061035,-0.915527,0.183105,2025-09-10 08:52:34
1757494355,0.061035,-0.854492,0.183105,2025-09-10 08:52:35
1757494355,0.12207,-0.854492,0.183105,2025-09-10 08:52:35
1757494355,0.061035,-0.854492,0.183105,2025-09-10 08:52:35
1757494356,0.061035,-0.854492,0.12207,2025-09-10 08:52:36
1757494356,0.061035,-0.854492,0.183105,2025-09-10 08:52:36
1757494356,0.061035,-0.854492,0.183105,2025-09-10 08:52:36
1757494356,0.061035,-0.915527,0.183105,2025-09-10 08:52:36
1757494357,0.061035,-0.915527,0.183105,2025-09-10 08:52:37
1757494357,0.061035,-0.915527,0.183105,2025-09-10 08:52:37
1757494357,0.061035,-0.915527,0.183105,2025-09-10 08:52:37
1757494358,0.061035,-0.915527,0.183105,2025-09-10 08:52:38
1757494358,0.061035,-0.854492,0.183105,2025-09-10 08:52:38
1757494358,0.061035,-0.915527,0.12207,2025-09-10 08:52:38
1757494358,0.061035,-0.854492,0.183105,2025-09-10 08:52:38
1757494359,0.061035,-0.915527,0.183105,2025-09-10 08:52:39
1757494359,0.061035,-0.854492,0.183105,2025-09-10 08:52:39
1757494359,0.061035,-0.854492,0.183105,2025-09-10 08:52:39
1757494360,0.061035,-0.915527,0.183105,2025-09-10 08:52:40
1757494360,0.0,-0.854492,0.183105,2025-09-10 08:52:40
1757494360,0.12207,-0.915527,0.183105,2025-09-10 08:52:40
1757494360,0.0,-0.915527,0.183105,2025-09-10 08:52:40
1757494361,0.061035,-0.915527,0.183105,2025-09-10 08:52:41
1757494361,0.061035,-0.854492,0.183105,2025-09-10 08:52:41
1757494361,0.061035,-0.854492,0.183105,2025-09-10 08:52:41
1757494362,0.061035,-0.854492,0.183105,2025-09-10 08:52:42
1757494362,0.061035,-0.854492,0.183105,2025-09-10 08:52:42
1757494362,0.061035,-0.854492,0.183105,2025-09-10 08:52:42
1757494362,0.061035,-0.854492,0.183105,2025-09-10 08:52:42
1757494363,0.061035,-0.854492,0.183105,2025-09-10 08:52:43
1757494363,0.061035,-0.854492,0.183105,2025-09-10 08:52:43
1757494363,0.061035,-0.854492,0.183105,2025-09-10 08:52:43
1757494364,0.061035,-0.915527,0.183105,2025-09-10 08:52:44
1757494364,0.061035,-0.854492,0.183105,2025-09-10 08:52:44
1757494364,0.061035,-0.915527,0.183105,2025-09-10 08:52:44
1757494365,0.061035,-0.915527,0.183105,2025-09-10 08:52:45
1757494365,0.061035,-0.915527,0.183105,2025-09-10 08:52:45
1757494365,0.12207,-0.854492,0.183105,2025-09-10 08:52:45
1757494365,0.061035,-0.854492,0.183105,2025-09-10 08:52:45
1757494366,0.061035,-0.915527,0.183105,2025-09-10 08:52:46
1757494366,0.061035,-0.915527,0.183105,2025-09-10 08:52:46
1757494366,0.061035,-0.854492,0.183105,2025-09-10 08:52:46
1757494367,0.061035,-0.854492,0.183105,2025-09-10 08:52:47
1757494367,0.12207,-0.915527,0.183105,2025-09-10 08:52:47
1757494367,0.061035,-0.854492,0.183105,2025-09-10 08:52:47
1757494367,0.061035,-0.854492,0.183105,2025-09-10 08:52:47
1757494368,0.061035,-0.854492,0.183105,2025-09-10 08:52:48
1757494368,0.061035,-0.915527,0.183105,2025-09-10 08:52:48
1757494368,0.061035,-0.854492,0.183105,2025-09-10 08:52:48
1757494368,0.061035,-0.854492,0.183105,2025-09-10 08:52:48
1757494369,0.061035,-0.854492,0.183105,2025-09-10 08:52:49
1757494369,0.061035,-0.854492,0.183105,2025-09-10 08:52:49
1757494369,0.061035,-0.854492,0.12207,2025-09-10 08:52:49
1757494370,0.061035,-0.915527,0.183105,2025-09-10 08:52:50
1757494370,0.061035,-0.915527,0.12207,2025-09-10 08:52:50
1757494370,0.061035,-0.854492,0.12207,2025-09-10 08:52:50
1757494370,0.061035,-0.915527,0.183105,2025-09-10 08:52:50
1757494371,0.061035,-0.854492,0.183105,2025-09-10 08:52:51
1757494371,0.061035,-0.854492,0.183105,2025-09-10 08:52:51
1757494371,0.061035,-0.915527,0.183105,2025-09-10 08:52:51
1757494372,0.061035,-0.854492,0.183105,2025-09-10 08:52:52
1757494372,0.061035,-0.915527,0.183105,2025-09-10 08:52:52
1757494372,0.061035,-0.915527,0.183105,2025-09-10 08:52:52
1757494373,0.061035,-0.915527,0.12207,2025-09-10 08:52:53
1757494373,0.061035,-0.854492,0.12207,2025-09-10 08:52:53
1757494373,0.061035,-0.854492,0.183105,2025-09-10 08:52:53
1757494373,0.061035,-0.915527,0.183105,2025-09-10 08:52:53
1757494374,0.061035,-0.915527,0.183105,2025-09-10 08:52:54
1757494374,0.061035,-0.854492,0.12207,2025-09-10 08:52:54
1757494374,0.12207,-0.915527,0.183105,2025-09-10 08:52:54
1757494375,0.061035,-0.854492,0.183105,2025-09-10 08:52:55
1757494375,0.061035,-0.915527,0.183105,2025-09-10 08:52:55
1757494375,0.061035,-0.854492,0.183105,2025-09-10 08:52:55
1757494375,0.061035,-0.854492,0.183105,2025-09-10 08:52:55
1757494376,0.061035,-0.854492,0.183105,2025-09-10 08:52:56
1757494376,0.061035,-0.854492,0.183105,2025-09-10 08:52:56
1757494376,0.061035,-0.915527,0.183105,2025-09-10 08:52:56
1757494377,0.061035,-0.854492,0.183105,2025-09-10 08:52:57
1757494377,0.061035,-0.915527,0.183105,2025-09-10 08:52:57
1757494377,0.061035,-0.915527,0.183105,2025-09-10 08:52:57
1757494377,0.061035,-0.854492,0.12207,2025-09-10 08:52:57
1757494378,0.061035,-0.854492,0.183105,2025-09-10 08:52:58
1757494378,0.12207,-0.854492,0.183105,2025-09-10 08:52:58
1757494378,0.061035,-0.915527,0.183105,2025-09-10 08:52:58
1757494379,0.12207,-0.854492,0.183105,2025-09-10 08:52:59
1757494379,0.061035,-0.854492,0.183105,2025-09-10 08:52:59
1757494379,0.061035,-0.854492,0.183105,2025-09-10 08:52:59
1757494379,0.061035,-0.854492,0.183105,2025-09-10 08:52:59
1757494380,0.061035,-0.854492,0.183105,2025-09-10 08:53:00
1757494380,0.061035,-0.854492,0.12207,2025-09-10 08:53:00
1757494380,0.12207,-0.915527,0.183105,2025-09-10 08:53:00
1757494381,0.061035,-0.854492,0.183105,2025-09-10 08:53:01
1757494381,0.061035,-0.854492,0.12207,2025-09-10 08:53:01
1757494381,0.061035,-0.854492,0.183105,2025-09-10 08:53:01
1757494382,0.061035,-0.854492,0.183105,2025-09-10 08:53:02
1757494382,0.061035,-0.854492,0.183105,2025-09-10 08:53:02
1757494382,0.12207,-0.915527,0.183105,2025-09-10 08:53:02
1757494382,0.061035,-0.854492,0.183105,2025-09-10 08:53:02
1757494383,0.061035,-0.854492,0.183105,2025-09-10 08:53:03
1757494383,0.061035,-0.854492,0.183105,2025-09-10 08:53:03
1757494383,0.061035,-0.915527,0.183105,2025-09-10 08:53:03
1757494384,0.061035,-0.854492,0.12207,2025-09-10 08:53:04
1757494384,0.061035,-0.854492,0.183105,2025-09-10 08:53:04
1757494384,0.061035,-0.854492,0.183105,2025-09-10 08:53:04
1757494384,0.061035,-0.854492,0.183105,2025-09-10 08:53:04
1757494385,0.061035,-0.854492,0.183105,2025-09-10 08:53:05
1757494385,0.061035,-0.915527,0.183105,2025-09-10 08:53:05
1757494385,0.061035,-0.854492,0.183105,2025-09-10 08:53:05
1757494386,0.061035,-0.854492,0.183105,2025-09-10 08:53:06
1757494386,0.061035,-0.854492,0.183105,2025-09-10 08:53:06
1757494386,0.061035,-0.854492,0.183105,2025-09-10 08:53:06
1757494386,0.061035,-0.854492,0.183105,2025-09-10 08:53:06
1757494387,0.12207,-0.915527,0.183105,2025-09-10 08:53:07
1757494387,0.061035,-0.854492,0.183105,2025-09-10 08:53:07
1757494387,0.061035,-0.854492,0.12207,2025-09-10 08:53:07
1757494388,0.061035,-0.915527,0.183105,2025-09-10 08:53:08
1757494388,0.061035,-0.854492,0.183105,2025-09-10 08:53:08
1757494388,0.0,-0.854492,0.12207,2025-09-10 08:53:08
1757494388,0.12207,-0.854492,0.183105,2025-09-10 08:53:08
1757494389,0.061035,-0.854492,0.183105,2025-09-10 08:53:09
1757494389,0.061035,-0.854492,0.183105,2025-09-10 08:53:09
1757494389,0.061035,-0.854492,0.183105,2025-09-10 08:53:09
1757494390,0.061035,-0.854492,0.183105,2025-09-10 08:53:10
1757494390,0.061035,-0.915527,0.183105,2025-09-10 08:53:10
1757494390,0.12207,-0.915527,0.183105,2025-09-10 08:53:10
1757494391,0.061035,-0.854492,0.12207,2025-09-10 08:53:11
1757494391,0.061035,-0.854492,0.183105,2025-09-10 08:53:11
1757494391,0.061035,-0.915527,0.183105,2025-09-10 08:53:11
1757494391,0.061035,-0.854492,0.12207,2025-09-10 08:53:11
1757494392,0.061035,-0.854492,0.12207,2025-09-10 08:53:12
1757494392,0.061035,-0.854492,0.183105,2025-09-10 08:53:12
1757494392,0.0,-0.915527,0.183105,2025-09-10 08:53:12
1757494393,0.061035,-0.915527,0.183105,2025-09-10 08:53:13
1757494393,0.061035,-0.854492,0.183105,2025-09-10 08:53:13
1757494393,0.12207,-0.915527,0.183105,2025-09-10 08:53:13
1757494393,0.061035,-0.915527,0.183105,2025-09-10 08:53:13
1757494394,0.061035,-0.854492,0.183105,2025-09-10 08:53:14
1757494394,0.061035,-0.854492,0.183105,2025-09-10 08:53:14
1757494394,0.061035,-0.915527,0.183105,2025-09-10 08:53:14
1757494395,0.061035,-0.915527,0.183105,2025-09-10 08:53:15
1757494395,0.061035,-0.915527,0.183105,2025-09-10 08:53:15
1757494395,0.061035,-0.915527,0.183105,2025-09-10 08:53:15
1757494395,0.061035,-0.854492,0.12207,2025-09-10 08:53:15
1757494396,0.061035,-0.854492,0.183105,2025-09-10 08:53:16
1757494396,0.061035,-0.854492,0.183105,2025-09-10 08:53:16
1757494396,0.061035,-0.854492,0.183105,2025-09-10 08:53:16
1757494397,0.061035,-0.854492,0.12207,2025-09-10 08:53:17
1757494397,0.12207,-0.915527,0.183105,2025-09-10 08:53:17
1757494397,0.061035,-0.915527,0.183105,2025-09-10 08:53:17
1757494397,0.061035,-0.854492,0.183105,2025-09-10 08:53:17
1757494398,0.061035,-0.854492,0.183105,2025-09-10 08:53:18
1757494398,0.061035,-0.854492,0.183105,2025-09-10 08:53:18
1757494398,0.061035,-0.854492,0.183105,2025-09-10 08:53:18
1757494399,0.061035,-0.854492,0.183105,2025-09-10 08:53:19
1757494399,0.061035,-0.854492,0.183105,2025-09-10 08:53:19
1757494399,0.061035,-0.915527,0.183105,2025-09-10 08:53:19
1757494399,0.061035,-0.854492,0.183105,2025-09-10 08:53:19
1757494400,0.061035,-0.915527,0.183105,2025-09-10 08:53:20
1757494400,0.12207,-0.915527,0.183105,2025-09-10 08:53:20
1757494400,0.061035,-0.854492,0.183105,2025-09-10 08:53:20
1757494401,0.12207,-0.915527,0.183105,2025-09-10 08:53:21
1757494401,0.061035,-0.854492,0.183105,2025-09-10 08:53:21
1757494401,0.061035,-0.854492,0.183105,2025-09-10 08:53:21
1757494402,0.061035,-0.915527,0.183105,2025-09-10 08:53:22
1757494402,0.061035,-0.854492,0.12207,2025-09-10 08:53:22
1757494402,0.061035,-0.915527,0.183105,2025-09-10 08:53:22
1757494403,0.12207,-0.854492,0.183105,2025-09-10 08:53:23
1757494403,0.061035,-0.915527,0.183105,2025-09-10 08:53:23
1757494403,0.061035,-0.854492,0.12207,2025-09-10 08:53:23
1757494403,0.12207,-0.854492,0.183105,2025-09-10 08:53:23
1757494404,0.061035,-0.854492,0.183105,2025-09-10 08:53:24
1757494404,0.061035,-0.915527,0.183105,2025-09-10 08:53:24
1757494404,0.12207,-0.915527,0.183105,2025-09-10 08:53:24
1757494405,0.061035,-0.915527,0.183105,2025-09-10 08:53:25
1757494405,0.061035,-0.915527,0.183105,2025-09-10 08:53:25
1757494405,0.061035,-0.854492,0.183105,2025-09-10 08:53:25
1757494405,0.061035,-0.854492,0.183105,2025-09-10 08:53:25
1757494406,0.061035,-0.854492,0.183105,2025-09-10 08:53:26
1757494406,0.061035,-0.854492,0.183105,2025-09-10 08:53:26
1757494406,0.061035,-0.854492,0.183105,2025-09-10 08:53:26
1757494407,0.061035,-0.915527,0.183105,2025-09-10 08:53:27
1757494407,0.061035,-0.915527,0.183105,2025-09-10 08:53:27
1757494407,0.061035,-0.915527,0.183105,2025-09-10 08:53:27
1757494407,0.061035,-0.915527,0.183105,2025-09-10 08:53:27
1757494408,0.061035,-0.854492,0.183105,2025-09-10 08:53:28
1757494408,0.061035,-0.854492,0.183105,2025-09-10 08:53:28
1757494408,0.061035,-0.854492,0.183105,2025-09-10 08:53:28
1757494409,0.061035,-0.854492,0.183105,2025-09-10 08:53:29
1757494409,0.061035,-0.854492,0.183105,2025-09-10 08:53:29
1757494409,0.061035,-0.915527,0.183105,2025-09-10 08:53:29
1757494410,0.12207,-0.854492,0.183105,2025-09-10 08:53:30
1757494410,0.12207,-0.915527,0.183105,2025-09-10 08:53:30
1757494410,0.061035,-0.854492,0.183105,2025-09-10 08:53:30
1757494410,0.061035,-0.854492,0.183105,2025-09-10 08:53:30
1757494411,0.061035,-0.854492,0.12207,2025-09-10 08:53:31
1757494411,0.061035,-0.854492,0.183105,2025-09-10 08:53:31
1757494411,0.061035,-0.854492,0.183105,2025-09-10 08:53:31
1757494412,0.061035,-0.854492,0.183105,2025-09-10 08:53:32
1757494412,0.061035,-0.915527,0.183105,2025-09-10 08:53:32
1757494412,0.0,-0.854492,0.183105,2025-09-10 08:53:32
1757494412,0.061035,-0.854492,0.183105,2025-09-10 08:53:32
1757494413,0.061035,-0.915527,0.183105,2025-09-10 08:53:33
1757494413,0.061035,-0.854492,0.183105,2025-09-10 08:53:33
1757494413,0.061035,-0.915527,0.183105,2025-09-10 08:53:33
1757494414,0.061035,-0.854492,0.183105,2025-09-10 08:53:34
1757494414,0.061035,-0.854492,0.183105,2025-09-10 08:53:34
1757494414,0.061035,-0.915527,0.12207,2025-09-10 08:53:34
1757494414,0.061035,-0.854492,0.183105,2025-09-10 08:53:34
1757494415,0.061035,-0.915527,0.183105,2025-09-10 08:53:35
1757494415,0.061035,-0.915527,0.183105,2025-09-10 08:53:35
1757494415,0.061035,-0.854492,0.183105,2025-09-10 08:53:35
1757494415,0.061035,-0.854492,0.183105,2025-09-10 08:53:35
1757494416,0.061035,-0.915527,0.183105,2025-09-10 08:53:36
1757494416,0.061035,-0.854492,0.183105,2025-09-10 08:53:36
1757494416,0.061035,-0.854492,0.183105,2025-09-10 08:53:36
1757494417,0.061035,-0.854492,0.183105,2025-09-10 08:53:37
1757494417,0.061035,-0.854492,0.183105,2025-09-10 08:53:37
1757494417,0.0,-0.854492,0.183105,2025-09-10 08:53:37
1757494418,0.061035,-0.854492,0.183105,2025-09-10 08:53:38
1757494418,0.061035,-0.854492,0.183105,2025-09-10 08:53:38
1757494418,0.061035,-0.854492,0.183105,2025-09-10 08:53:38
1757494418,0.061035,-0.854492,0.183105,2025-09-10 08:53:38
1757494419,0.061035,-0.854492,0.183105,2025-09-10 08:53:39
1757494419,0.061035,-0.854492,0.183105,2025-09-10 08:53:39
1757494419,0.061035,-0.915527,0.183105,2025-09-10 08:53:39
1757494420,0.061035,-0.854492,0.183105,2025-09-10 08:53:40
1757494420,0.061035,-0.854492,0.12207,2025-09-10 08:53:40
1757494420,0.061035,-0.915527,0.183105,2025-09-10 08:53:40
1757494420,0.061035,-0.854492,0.12207,2025-09-10 08:53:40
1757494421,0.061035,-0.854492,0.183105,2025-09-10 08:53:41
1757494421,0.061035,-0.854492,0.183105,2025-09-10 08:53:41
1757494421,0.061035,-0.854492,0.12207,2025-09-10 08:53:41
1757494422,0.061035,-0.854492,0.183105,2025-09-10 08:53:42
1757494422,0.061035,-0.854492,0.12207,2025-09-10 08:53:42
1757494422,0.061035,-0.854492,0.183105,2025-09-10 08:53:42
1757494422,0.061035,-0.915527,0.183105,2025-09-10 08:53:42
1757494423,0.061035,-0.915527,0.183105,2025-09-10 08:53:43
1757494423,0.061035,-0.854492,0.183105,2025-09-10 08:53:43
1757494423,0.061035,-0.854492,0.183105,2025-09-10 08:53:43
1757494424,0.061035,-0.915527,0.183105,2025-09-10 08:53:44
1757494424,0.061035,-0.854492,0.183105,2025-09-10 08:53:44
1757494424,0.061035,-0.854492,0.183105,2025-09-10 08:53:44
1757494424,0.061035,-0.854492,0.183105,2025-09-10 08:53:44
1757494425,0.12207,-0.854492,0.183105,2025-09-10 08:53:45
1757494425,0.061035,-0.854492,0.183105,2025-09-10 08:53:45
1757494425,0.061035,-0.915527,0.183105,2025-09-10 08:53:45
1757494426,0.061035,-0.854492,0.12207,2025-09-10 08:53:46
1757494426,0.061035,-0.854492,0.183105,2025-09-10 08:53:46
1757494426,0.061035,-0.854492,0.183105,2025-09-10 08:53:46
1757494426,0.061035,-0.854492,0.183105,2025-09-10 08:53:46
1757494427,0.061035,-0.854492,0.183105,2025-09-10 08:53:47
1757494427,0.061035,-0.854492,0.183105,2025-09-10 08:53:47
1757494427,0.061035,-0.915527,0.183105,2025-09-10 08:53:47
1757494428,0.061035,-0.915527,0.12207,2025-09-10 08:53:48
1757494428,0.061035,-0.854492,0.183105,2025-09-10 08:53:48
1757494428,0.061035,-0.854492,0.183105,2025-09-10 08:53:48
1757494428,0.061035,-0.854492,0.183105,2025-09-10 08:53:48
1757494429,0.061035,-0.915527,0.183105,2025-09-10 08:53:49
1757494429,0.061035,-0.915527,0.12207,2025-09-10 08:53:49
1757494429,0.061035,-0.915527,0.183105,2025-09-10 08:53:49
1757494430,0.061035,-0.915527,0.183105,2025-09-10 08:53:50
1757494430,0.061035,-0.915527,0.12207,2025-09-10 08:53:50
1757494430,0.061035,-0.854492,0.183105,2025-09-10 08:53:50
1757494430,0.12207,-0.915527,0.183105,2025-09-10 08:53:50
1757494431,0.061035,-0.854492,0.183105,2025-09-10 08:53:51
1757494431,0.061035,-0.854492,0.183105,2025-09-10 08:53:51
1757494431,0.061035,-0.854492,0.183105,2025-09-10 08:53:51
1757494432,0.061035,-0.915527,0.183105,2025-09-10 08:53:52
1757494432,0.061035,-0.854492,0.183105,2025-09-10 08:53:52
1757494432,0.12207,-0.915527,0.183105,2025-09-10 08:53:52
1757494432,0.061035,-0.854492,0.183105,2025-09-10 08:53:52
1757494433,0.061035,-0.854492,0.183105,2025-09-10 08:53:53
1757494433,0.061035,-0.854492,0.183105,2025-09-10 08:53:53
1757494433,0.061035,-0.854492,0.183105,2025-09-10 08:53:53
1757494434,0.061035,-0.854492,0.183105,2025-09-10 08:53:54
1757494434,0.061035,-0.854492,0.183105,2025-09-10 08:53:54
1757494434,0.061035,-0.854492,0.183105,2025-09-10 08:53:54
1757494434,0.061035,-0.854492,0.183105,2025-09-10 08:53:54
1757494435,0.061035,-0.854492,0.183105,2025-09-10 08:53:55
1757494435,0.061035,-0.854492,0.183105,2025-09-10 08:53:55
1757494435,0.061035,-0.854492,0.183105,2025-09-10 08:53:55
1757494436,0.061035,-0.854492,0.183105,2025-09-10 08:53:56
1757494436,0.061035,-0.854492,0.183105,2025-09-10 08:53:56
1757494436,0.061035,-0.915527,0.183105,2025-09-10 08:53:56
1757494436,0.061035,-0.915527,0.183105,2025-09-10 08:53:56
1757494437,0.061035,-0.854492,0.12207,2025-09-10 08:53:57
1757494437,0.061035,-0.854492,0.183105,2025-09-10 08:53:57
1757494437,0.061035,-0.854492,0.183105,2025-09-10 08:53:57
1757494438,0.061035,-0.854492,0.183105,2025-09-10 08:53:58
1757494438,0.061035,-0.854492,0.183105,2025-09-10 08:53:58
1757494438,0.061035,-0.854492,0.183105,2025-09-10 08:53:58
1757494438,0.061035,-0.854492,0.183105,2025-09-10 08:53:58
1757494439,0.061035,-0.915527,0.183105,2025-09-10 08:53:59
1757494439,0.061035,-0.854492,0.183105,2025-09-10 08:53:59
1757494439,0.061035,-0.854492,0.183105,2025-09-10 08:53:59
1757494440,0.061035,-0.915527,0.12207,2025-09-10 08:54:00
1757494440,0.061035,-0.915527,0.183105,2025-09-10 08:54:00
1757494440,0.061035,-0.854492,0.183105,2025-09-10 08:54:00
1757494440,0.12207,-0.915527,0.183105,2025-09-10 08:54:00
1757494441,0.061035,-0.915527,0.183105,2025-09-10 08:54:01
1757494441,0.061035,-0.854492,0.183105,2025-09-10 08:54:01
1757494441,0.061035,-0.854492,0.12207,2025-09-10 08:54:01
1757494442,0.061035,-0.854492,0.12207,2025-09-10 08:54:02
1757494442,0.061035,-0.854492,0.183105,2025-09-10 08:54:02
1757494442,0.061035,-0.915527,0.183105,2025-09-10 08:54:02
1757494442,0.061035,-0.915527,0.183105,2025-09-10 08:54:02
1757494443,0.061035,-0.854492,0.12207,2025-09-10 08:54:03
1757494443,0.061035,-0.854492,0.183105,2025-09-10 08:54:03
1757494443,0.12207,-0.915527,0.183105,2025-09-10 08:54:03
1757494444,0.061035,-0.854492,0.183105,2025-09-10 08:54:04
1757494444,0.061035,-0.854492,0.183105,2025-09-10 08:54:04
1757494444,0.061035,-0.854492,0.183105,2025-09-10 08:54:04
1757494444,0.061035,-0.854492,0.183105,2025-09-10 08:54:04
1757494445,0.061035,-0.854492,0.183105,2025-09-10 08:54:05
1757494445,0.061035,-0.854492,0.183105,2025-09-10 08:54:05
1757494445,0.061035,-0.915527,0.183105,2025-09-10 08:54:05
1757494446,0.061035,-0.854492,0.183105,2025-09-10 08:54:06
1757494446,0.061035,-0.915527,0.183105,2025-09-10 08:54:06
1757494446,0.061035,-0.854492,0.183105,2025-09-10 08:54:06
1757494446,0.061035,-0.854492,0.183105,2025-09-10 08:54:06
1757494447,0.061035,-0.854492,0.183105,2025-09-10 08:54:07
1757494447,0.061035,-0.915527,0.183105,2025-09-10 08:54:07
1757494447,0.061035,-0.915527,0.12207,2025-09-10 08:54:07
1757494448,0.061035,-0.915527,0.183105,2025-09-10 08:54:08
1757494448,0.061035,-0.915527,0.183105,2025-09-10 08:54:08
1757494448,0.061035,-0.854492,0.12207,2025-09-10 08:54:08
1757494448,0.061035,-0.854492,0.183105,2025-09-10 08:54:08
1757494449,0.061035,-0.854492,0.12207,2025-09-10 08:54:09
1757494449,0.061035,-0.915527,0.183105,2025-09-10 08:54:09
1757494449,0.061035,-0.854492,0.183105,2025-09-10 08:54:09
1757494450,0.061035,-0.915527,0.183105,2025-09-10 08:54:10
1757494450,0.061035,-0.854492,0.183105,2025-09-10 08:54:10
1757494450,0.061035,-0.854492,0.183105,2025-09-10 08:54:10
1757494450,0.061035,-0.854492,0.183105,2025-09-10 08:54:10
1757494451,0.061035,-0.915527,0.183105,2025-09-10 08:54:11
1757494451,0.061035,-0.854492,0.183105,2025-09-10 08:54:11
1757494451,0.061035,-0.854492,0.183105,2025-09-10 08:54:11
1757494452,0.061035,-0.854492,0.183105,2025-09-10 08:54:12
1757494452,0.061035,-0.854492,0.183105,2025-09-10 08:54:12
1757494452,0.061035,-0.915527,0.183105,2025-09-10 08:54:12
1757494452,0.12207,-0.854492,0.183105,2025-09-10 08:54:12
1757494453,0.061035,-0.854492,0.183105,2025-09-10 08:54:13
1757494453,0.061035,-0.854492,0.183105,2025-09-10 08:54:13
1757494453,0.061035,-0.854492,0.183105,2025-09-10 08:54:13
1757494454,0.061035,-0.854492,0.183105,2025-09-10 08:54:14
1757494454,0.12207,-0.854492,0.183105,2025-09-10 08:54:14
1757494454,0.061035,-0.854492,0.183105,2025-09-10 08:54:14
1757494454,0.061035,-0.854492,0.183105,2025-09-10 08:54:14
1757494455,0.061035,-0.854492,0.183105,2025-09-10 08:54:15
1757494455,0.061035,-0.854492,0.183105,2025-09-10 08:54:15
1757494455,0.061035,-0.915527,0.183105,2025-09-10 08:54:15
1757494456,0.061035,-0.854492,0.12207,2025-09-10 08:54:16
1757494456,0.061035,-0.854492,0.12207,2025-09-10 08:54:16
1757494456,0.061035,-0.854492,0.183105,2025-09-10 08:54:16
1757494456,0.0,-0.854492,0.12207,2025-09-10 08:54:16
1757494457,0.12207,-0.915527,0.183105,2025-09-10 08:54:17
1757494457,0.061035,-0.915527,0.183105,2025-09-10 08:54:17
1757494457,0.061035,-0.854492,0.183105,2025-09-10 08:54:17
1757494458,0.061035,-0.854492,0.183105,2025-09-10 08:54:18
1757494458,0.061035,-0.915527,0.183105,2025-09-10 08:54:18
1757494458,0.061035,-0.854492,0.183105,2025-09-10 08:54:18
1757494458,0.061035,-0.854492,0.183105,2025-09-10 08:54:18
1757494459,0.061035,-0.854492,0.183105,2025-09-10 08:54:19
1757494459,0.061035,-0.854492,0.183105,2025-09-10 08:54:19
1757494459,0.061035,-0.915527,0.183105,2025-09-10 08:54:19
1757494460,0.061035,-0.854492,0.183105,2025-09-10 08:54:20
1757494460,0.061035,-0.915527,0.183105,2025-09-10 08:54:20
1757494460,0.061035,-0.915527,0.183105,2025-09-10 08:54:20
1757494460,0.12207,-0.793457,0.183105,2025-09-10 08:54:20
1757494461,0.061035,-0.915527,0.183105,2025-09-10 08:54:21
1757494461,0.061035,-0.915527,0.183105,2025-09-10 08:54:21
1757494461,0.061035,-0.854492,0.183105,2025-09-10 08:54:21
1757494462,0.061035,-0.854492,0.183105,2025-09-10 08:54:22
1757494462,0.061035,-0.854492,0.183105,2025-09-10 08:54:22
1757494462,0.061035,-0.915527,0.183105,2025-09-10 08:54:22
1757494462,0.061035,-0.915527,0.12207,2025-09-10 08:54:22
1757494463,0.061035,-0.854492,0.183105,2025-09-10 08:54:23
1757494463,0.061035,-0.854492,0.183105,2025-09-10 08:54:23
1757494463,0.061035,-0.915527,0.183105,2025-09-10 08:54:23
1757494464,0.061035,-0.915527,0.183105,2025-09-10 08:54:24
1757494464,0.061035,-0.854492,0.12207,2025-09-10 08:54:24
1757494464,0.061035,-0.854492,0.183105,2025-09-10 08:54:24
1757494464,0.12207,-0.915527,0.183105,2025-09-10 08:54:24
1757494465,0.061035,-0.915527,0.183105,2025-09-10 08:54:25
1757494465,0.12207,-0.915527,0.183105,2025-09-10 08:54:25
1757494465,0.061035,-0.854492,0.183105,2025-09-10 08:54:25
1757494466,0.061035,-0.854492,0.12207,2025-09-10 08:54:26
1757494466,0.061035,-0.915527,0.183105,2025-09-10 08:54:26
1757494466,0.061035,-0.915527,0.183105,2025-09-10 08:54:26
1757494466,0.12207,-0.915527,0.12207,2025-09-10 08:54:26
1757494467,0.061035,-0.854492,0.183105,2025-09-10 08:54:27
1757494467,0.061035,-0.854492,0.183105,2025-09-10 08:54:27
1757494467,0.061035,-0.854492,0.183105,2025-09-10 08:54:27
1757494468,0.061035,-0.915527,0.183105,2025-09-10 08:54:28
1757494468,0.061035,-0.854492,0.183105,2025-09-10 08:54:28
1757494468,0.061035,-0.854492,0.183105,2025-09-10 08:54:28
1757494468,0.061035,-0.854492,0.183105,2025-09-10 08:54:28
1757494469,0.061035,-0.854492,0.183105,2025-09-10 08:54:29
1757494469,0.061035,-0.854492,0.183105,2025-09-10 08:54:29
1757494469,0.061035,-0.854492,0.183105,2025-09-10 08:54:29
1757494470,0.061035,-0.854492,0.183105,2025-09-10 08:54:30
1757494470,0.0,-0.854492,0.183105,2025-09-10 08:54:30
1757494470,0.061035,-0.854492,0.183105,2025-09-10 08:54:30
1757494470,0.061035,-0.854492,0.183105,2025-09-10 08:54:30
1757494471,0.061035,-0.854492,0.183105,2025-09-10 08:54:31
1757494471,0.061035,-0.854492,0.183105,2025-09-10 08:54:31
1757494471,0.061035,-0.854492,0.183105,2025-09-10 08:54:31
1757494472,0.061035,-0.854492,0.183105,2025-09-10 08:54:32
1757494472,0.0,-0.793457,0.183105,2025-09-10 08:54:32
1757494472,0.0,-0.793457,0.183105,2025-09-10 08:54:32
1757494472,0.061035,-0.793457,0.183105,2025-09-10 08:54:32
1757494473,0.061035,-0.915527,0.183105,2025-09-10 08:54:33
1757494473,0.061035,-0.915527,0.183105,2025-09-10 08:54:33
1757494474,0.061035,-0.854492,0.183105,2025-09-10 08:54:34
1757494474,0.061035,-0.854492,0.183105,2025-09-10 08:54:34
1757494474,0.061035,-0.854492,0.12207,2025-09-10 08:54:34
1757494474,0.12207,-0.854492,0.12207,2025-09-10 08:54:34
1757494475,0.061035,-0.915527,0.183105,2025-09-10 08:54:35
1757494475,0.061035,-0.854492,0.183105,2025-09-10 08:54:35
1757494475,0.061035,-0.915527,0.183105,2025-09-10 08:54:35
1757494476,0.061035,-0.854492,0.183105,2025-09-10 08:54:36
1757494476,0.061035,-0.915527,0.183105,2025-09-10 08:54:36
1757494476,0.061035,-0.915527,0.183105,2025-09-10 08:54:36
1757494476,0.061035,-0.915527,0.183105,2025-09-10 08:54:36
1757494477,0.061035,-0.915527,0.183105,2025-09-10 08:54:37
1757494477,0.061035,-0.915527,0.183105,2025-09-10 08:54:37
1757494477,0.061035,-0.854492,0.183105,2025-09-10 08:54:37
1757494478,0.12207,-0.854492,0.183105,2025-09-10 08:54:38
1757494478,0.061035,-0.854492,0.12207,2025-09-10 08:54:38
1757494478,0.12207,-0.915527,0.183105,2025-09-10 08:54:38
1757494478,0.061035,-0.915527,0.183105,2025-09-10 08:54:38
1757494479,0.0,-0.854492,0.12207,2025-09-10 08:54:39
1757494479,0.061035,-0.854492,0.183105,2025-09-10 08:54:39
1757494479,0.12207,-0.915527,0.183105,2025-09-10 08:54:39
1757494480,0.061035,-0.854492,0.183105,2025-09-10 08:54:40
1757494480,0.061035,-0.854492,0.183105,2025-09-10 08:54:40
1757494480,0.061035,-0.854492,0.183105,2025-09-10 08:54:40
1757494480,0.061035,-0.915527,0.183105,2025-09-10 08:54:40
1757494481,0.12207,-0.854492,0.183105,2025-09-10 08:54:41
1757494481,0.061035,-0.915527,0.183105,2025-09-10 08:54:41
1757494481,0.061035,-0.854492,0.183105,2025-09-10 08:54:41
1757494482,0.061035,-0.915527,0.12207,2025-09-10 08:54:42
1757494482,0.061035,-0.854492,0.183105,2025-09-10 08:54:42
1757494483,0.061035,-0.854492,0.183105,2025-09-10 08:54:43
1757494483,0.061035,-0.915527,0.183105,2025-09-10 08:54:43
1757494483,0.061035,-0.915527,0.183105,2025-09-10 08:54:43
1757494483,0.061035,-0.854492,0.183105,2025-09-10 08:54:43
1757494484,0.12207,-0.854492,0.183105,2025-09-10 08:54:44
1757494484,0.061035,-0.915527,0.183105,2025-09-10 08:54:44
1757494484,0.061035,-0.854492,0.12207,2025-09-10 08:54:44
1757494485,0.061035,-0.854492,0.183105,2025-09-10 08:54:45
1757494485,0.061035,-0.915527,0.183105,2025-09-10 08:54:45
1757494485,0.061035,-0.915527,0.183105,2025-09-10 08:54:45
1757494485,0.061035,-0.915527,0.183105,2025-09-10 08:54:45
1757494486,0.061035,-0.915527,0.183105,2025-09-10 08:54:46
1757494486,0.061035,-0.854492,0.183105,2025-09-10 08:54:46
1757494486,0.061035,-0.854492,0.183105,2025-09-10 08:54:46
1757494486,0.061035,-0.915527,0.183105,2025-09-10 08:54:46
1757494487,0.061035,-0.854492,0.183105,2025-09-10 08:54:47
1757494487,0.061035,-0.854492,0.183105,2025-09-10 08:54:47
1757494487,0.061035,-0.854492,0.183105,2025-09-10 08:54:47
1757494487,0.061035,-0.854492,0.183105,2025-09-10 08:54:47
1757494488,0.061035,-0.854492,0.183105,2025-09-10 08:54:48
1757494488,0.061035,-0.854492,0.183105,2025-09-10 08:54:48
1757494488,0.061035,-0.854492,0.183105,2025-09-10 08:54:48
1757494488,0.061035,-0.854492,0.183105,2025-09-10 08:54:48
1757494489,0.061035,-0.854492,0.183105,2025-09-10 08:54:49
1757494489,0.061035,-0.854492,0.183105,2025-09-10 08:54:49
1757494489,0.061035,-0.915527,0.183105,2025-09-10 08:54:49
1757494489,0.061035,-0.854492,0.183105,2025-09-10 08:54:49
1757494490,0.061035,-0.854492,0.183105,2025-09-10 08:54:50
1757494490,0.061035,-0.854492,0.12207,2025-09-10 08:54:50
1757494490,0.061035,-0.854492,0.12207,2025-09-10 08:54:50
1757494490,0.061035,-0.915527,0.183105,2025-09-10 08:54:50
1757494491,0.061035,-0.854492,0.183105,2025-09-10 08:54:51
1757494491,0.061035,-0.854492,0.12207,2025-09-10 08:54:51
1757494491,0.061035,-0.915527,0.183105,2025-09-10 08:54:51
1757494491,0.061035,-0.915527,0.183105,2025-09-10 08:54:51
1757494492,0.061035,-0.854492,0.183105,2025-09-10 08:54:52
1757494492,0.061035,-0.915527,0.183105,2025-09-10 08:54:52
1757494492,0.061035,-0.915527,0.183105,2025-09-10 08:54:52
1757494492,0.061035,-0.854492,0.12207,2025-09-10 08:54:52
1757494493,0.061035,-0.854492,0.183105,2025-09-10 08:54:53
1757494493,0.061035,-0.854492,0.183105,2025-09-10 08:54:53
1757494493,0.061035,-0.915527,0.183105,2025-09-10 08:54:53
1757494493,0.061035,-0.915527,0.183105,2025-09-10 08:54:53
1757494494,0.061035,-0.854492,0.183105,2025-09-10 08:54:54
1757494494,0.061035,-0.915527,0.12207,2025-09-10 08:54:54
1757494494,0.061035,-0.854492,0.183105,2025-09-10 08:54:54
1757494495,0.061035,-0.915527,0.12207,2025-09-10 08:54:55
1757494495,0.061035,-0.854492,0.183105,2025-09-10 08:54:55
1757494495,0.061035,-0.915527,0.183105,2025-09-10 08:54:55
1757494495,0.061035,-0.915527,0.183105,2025-09-10 08:54:55
1757494496,0.061035,-0.854492,0.12207,2025-09-10 08:54:56
1757494496,0.061035,-0.854492,0.183105,2025-09-10 08:54:56
1757494496,0.0,-0.915527,0.183105,2025-09-10 08:54:56
1757494496,0.061035,-0.915527,0.183105,2025-09-10 08:54:56
1757494497,0.12207,-0.854492,0.183105,2025-09-10 08:54:57
1757494497,0.12207,-0.854492,0.183105,2025-09-10 08:54:57
1757494497,0.061035,-0.854492,0.183105,2025-09-10 08:54:57
1757494498,0.0,-0.854492,0.183105,2025-09-10 08:54:58
1757494498,0.061035,-0.854492,0.183105,2025-09-10 08:54:58
1757494498,0.061035,-0.854492,0.183105,2025-09-10 08:54:58
1757494498,0.061035,-0.915527,0.183105,2025-09-10 08:54:58
1757494499,0.061035,-0.854492,0.183105,2025-09-10 08:54:59
1757494499,0.061035,-0.854492,0.183105,2025-09-10 08:54:59
1757494499,0.061035,-0.854492,0.12207,2025-09-10 08:54:59
1757494500,0.061035,-0.854492,0.183105,2025-09-10 08:55:00
1757494500,0.061035,-0.854492,0.183105,2025-09-10 08:55:00
1757494500,0.12207,-0.854492,0.183105,2025-09-10 08:55:00
1757494500,0.12207,-0.915527,0.183105,2025-09-10 08:55:00
1757494501,0.061035,-0.854492,0.183105,2025-09-10 08:55:01
1757494501,0.061035,-0.854492,0.183105,2025-09-10 08:55:01
1757494501,0.061035,-0.854492,0.12207,2025-09-10 08:55:01
1757494502,0.061035,-0.915527,0.183105,2025-09-10 08:55:02
1757494502,0.061035,-0.854492,0.183105,2025-09-10 08:55:02
1757494502,0.061035,-0.915527,0.183105,2025-09-10 08:55:02
1757494502,0.061035,-0.854492,0.183105,2025-09-10 08:55:02
1757494503,0.061035,-0.854492,0.183105,2025-09-10 08:55:03
1757494503,0.061035,-0.915527,0.183105,2025-09-10 08:55:03
1757494503,0.061035,-0.915527,0.183105,2025-09-10 08:55:03
1757494504,0.061035,-0.915527,0.183105,2025-09-10 08:55:04
1757494504,0.061035,-0.915527,0.183105,2025-09-10 08:55:04
1757494504,0.061035,-0.854492,0.12207,2025-09-10 08:55:04
1757494504,0.061035,-0.915527,0.183105,2025-09-10 08:55:04
1757494505,0.061035,-0.915527,0.183105,2025-09-10 08:55:05
1757494505,0.061035,-0.915527,0.183105,2025-09-10 08:55:05
1757494505,0.061035,-0.854492,0.183105,2025-09-10 08:55:05
1757494506,0.12207,-0.854492,0.183105,2025-09-10 08:55:06
1757494506,0.061035,-0.854492,0.183105,2025-09-10 08:55:06
1757494506,0.061035,-0.915527,0.183105,2025-09-10 08:55:06
1757494506,0.061035,-0.854492,0.183105,2025-09-10 08:55:06
1757494507,0.061035,-0.854492,0.183105,2025-09-10 08:55:07
1757494507,0.061035,-0.854492,0.183105,2025-09-10 08:55:07
1757494507,0.061035,-0.854492,0.183105,2025-09-10 08:55:07
1757494508,0.061035,-0.915527,0.183105,2025-09-10 08:55:08
1757494508,0.061035,-0.854492,0.183105,2025-09-10 08:55:08
1757494508,0.061035,-0.854492,0.183105,2025-09-10 08:55:08
1757494508,0.061035,-0.854492,0.183105,2025-09-10 08:55:08
1757494509,0.061035,-0.854492,0.183105,2025-09-10 08:55:09
1757494509,0.061035,-0.854492,0.183105,2025-09-10 08:55:09
1757494509,0.061035,-0.854492,0.183105,2025-09-10 08:55:09
1757494510,0.061035,-0.915527,0.183105,2025-09-10 08:55:10
1757494510,0.061035,-0.854492,0.183105,2025-09-10 08:55:10
1757494510,0.061035,-0.915527,0.183105,2025-09-10 08:55:10
1757494510,0.061035,-0.854492,0.183105,2025-09-10 08:55:10
1757494511,0.061035,-0.915527,0.12207,2025-09-10 08:55:11
1757494511,0.061035,-0.854492,0.183105,2025-09-10 08:55:11
1757494511,0.061035,-0.915527,0.183105,2025-09-10 08:55:11
1757494512,0.061035,-0.854492,0.183105,2025-09-10 08:55:12
1757494512,0.061035,-0.854492,0.183105,2025-09-10 08:55:12
1757494512,0.061035,-0.854492,0.183105,2025-09-10 08:55:12
1757494512,0.061035,-0.854492,0.183105,2025-09-10 08:55:12
1757494513,0.061035,-0.854492,0.183105,2025-09-10 08:55:13
1757494513,0.061035,-0.915527,0.183105,2025-09-10 08:55:13
1757494513,0.061035,-0.854492,0.183105,2025-09-10 08:55:13
1757494514,0.061035,-0.915527,0.183105,2025-09-10 08:55:14
1757494514,0.061035,-0.854492,0.183105,2025-09-10 08:55:14
1757494514,0.061035,-0.854492,0.183105,2025-09-10 08:55:14
1757494515,0.061035,-0.854492,0.183105,2025-09-10 08:55:15
1757494515,0.061035,-0.854492,0.183105,2025-09-10 08:55:15
1757494515,0.061035,-0.854492,0.12207,2025-09-10 08:55:15
1757494515,0.061035,-0.854492,0.183105,2025-09-10 08:55:15
1757494516,0.12207,-0.915527,0.183105,2025-09-10 08:55:16
1757494516,0.061035,-0.854492,0.183105,2025-09-10 08:55:16
1757494516,0.061035,-0.854492,0.183105,2025-09-10 08:55:16
1757494517,0.061035,-0.854492,0.183105,2025-09-10 08:55:17
1757494517,0.061035,-0.854492,0.183105,2025-09-10 08:55:17
1757494517,0.061035,-0.915527,0.183105,2025-09-10 08:55:17
1757494517,0.061035,-0.854492,0.183105,2025-09-10 08:55:17
1757494518,0.061035,-0.915527,0.183105,2025-09-10 08:55:18
1757494518,0.061035,-0.854492,0.183105,2025-09-10 08:55:18
1757494518,0.061035,-0.915527,0.183105,2025-09-10 08:55:18
1757494518,0.061035,-0.854492,0.183105,2025-09-10 08:55:18
1757494519,0.061035,-0.854492,0.183105,2025-09-10 08:55:19
1757494519,0.12207,-0.915527,0.183105,2025-09-10 08:55:19
1757494519,0.061035,-0.854492,0.183105,2025-09-10 08:55:19
1757494520,0.12207,-0.915527,0.183105,2025-09-10 08:55:20
1757494520,0.061035,-0.854492,0.183105,2025-09-10 08:55:20
1757494520,0.061035,-0.854492,0.12207,2025-09-10 08:55:20
1757494520,0.061035,-0.915527,0.183105,2025-09-10 08:55:20
1757494521,0.061035,-0.915527,0.183105,2025-09-10 08:55:21
1757494521,0.061035,-0.854492,0.12207,2025-09-10 08:55:21
1757494521,0.061035,-0.854492,0.12207,2025-09-10 08:55:21
1757494522,0.061035,-0.854492,0.183105,2025-09-10 08:55:22
1757494522,0.12207,-0.915527,0.183105,2025-09-10 08:55:22
1757494522,0.061035,-0.854492,0.183105,2025-09-10 08:55:22
1757494522,0.061035,-0.915527,0.183105,2025-09-10 08:55:22
1757494523,0.061035,-0.854492,0.183105,2025-09-10 08:55:23
1757494523,0.061035,-0.915527,0.183105,2025-09-10 08:55:23
1757494523,0.12207,-0.854492,0.183105,2025-09-10 08:55:23
1757494524,0.061035,-0.854492,0.183105,2025-09-10 08:55:24
1757494524,0.061035,-0.854492,0.183105,2025-09-10 08:55:24
1757494524,0.061035,-0.915527,0.183105,2025-09-10 08:55:24
1757494524,0.061035,-0.915527,0.183105,2025-09-10 08:55:24
1757494525,0.061035,-0.854492,0.183105,2025-09-10 08:55:25
1757494525,0.061035,-0.854492,0.183105,2025-09-10 08:55:25
1757494525,0.061035,-0.854492,0.183105,2025-09-10 08:55:25
1757494526,0.061035,-0.854492,0.183105,2025-09-10 08:55:26
1757494526,0.061035,-0.854492,0.183105,2025-09-10 08:55:26
1757494526,0.061035,-0.854492,0.183105,2025-09-10 08:55:26
1757494526,0.061035,-0.854492,0.183105,2025-09-10 08:55:26
1757494527,0.061035,-0.854492,0.183105,2025-09-10 08:55:27
1757494527,0.061035,-0.854492,0.12207,2025-09-10 08:55:27
1757494527,0.12207,-0.915527,0.183105,2025-09-10 08:55:27
1757494528,0.061035,-0.915527,0.183105,2025-09-10 08:55:28
1757494528,0.061035,-0.854492,0.183105,2025-09-10 08:55:28
1757494528,0.061035,-0.854492,0.183105,2025-09-10 08:55:28
1757494528,0.061035,-0.854492,0.183105,2025-09-10 08:55:28
1757494529,0.061035,-0.854492,0.183105,2025-09-10 08:55:29
1757494529,0.061035,-0.915527,0.183105,2025-09-10 08:55:29
1757494529,0.061035,-0.854492,0.183105,2025-09-10 08:55:29
1757494530,0.061035,-0.915527,0.183105,2025-09-10 08:55:30
1757494530,0.061035,-0.854492,0.183105,2025-09-10 08:55:30
1757494530,0.12207,-0.915527,0.183105,2025-09-10 08:55:30
1757494530,0.12207,-0.915527,0.183105,2025-09-10 08:55:30
1757494531,0.061035,-0.854492,0.183105,2025-09-10 08:55:31
1757494531,0.061035,-0.854492,0.183105,2025-09-10 08:55:31
1757494531,0.061035,-0.915527,0.183105,2025-09-10 08:55:31
1757494532,0.061035,-0.854492,0.183105,2025-09-10 08:55:32
1757494532,0.061035,-0.854492,0.183105,2025-09-10 08:55:32
1757494532,0.061035,-0.854492,0.183105,2025-09-10 08:55:32
1757494532,0.061035,-0.854492,0.183105,2025-09-10 08:55:32
1757494533,0.061035,-0.854492,0.183105,2025-09-10 08:55:33
1757494533,0.061035,-0.915527,0.183105,2025-09-10 08:55:33
1757494533,0.061035,-0.915527,0.183105,2025-09-10 08:55:33
1757494534,0.061035,-0.854492,0.183105,2025-09-10 08:55:34
1757494534,0.061035,-0.854492,0.183105,2025-09-10 08:55:34
1757494534,0.061035,-0.915527,0.183105,2025-09-10 08:55:34
1757494534,0.061035,-0.915527,0.183105,2025-09-10 08:55:34
1757494535,0.061035,-0.854492,0.183105,2025-09-10 08:55:35
1757494535,0.061035,-0.854492,0.183105,2025-09-10 08:55:35
1757494535,0.12207,-0.915527,0.183105,2025-09-10 08:55:35
1757494536,0.061035,-0.915527,0.183105,2025-09-10 08:55:36
1757494536,0.061035,-0.854492,0.183105,2025-09-10 08:55:36
1757494536,0.061035,-0.854492,0.183105,2025-09-10 08:55:36
1757494536,0.061035,-0.915527,0.183105,2025-09-10 08:55:36
1757494537,0.061035,-0.854492,0.183105,2025-09-10 08:55:37
1757494537,0.061035,-0.854492,0.183105,2025-09-10 08:55:37
1757494537,0.061035,-0.854492,0.183105,2025-09-10 08:55:37
1757494538,0.061035,-0.854492,0.183105,2025-09-10 08:55:38
1757494538,0.061035,-0.854492,0.183105,2025-09-10 08:55:38
1757494538,0.061035,-0.854492,0.183105,2025-09-10 08:55:38
1757494538,0.061035,-0.854492,0.183105,2025-09-10 08:55:38
1757494539,0.061035,-0.854492,0.183105,2025-09-10 08:55:39
1757494539,0.061035,-0.915527,0.183105,2025-09-10 08:55:39
1757494539,0.061035,-0.854492,0.183105,2025-09-10 08:55:39
1757494540,0.061035,-0.854492,0.183105,2025-09-10 08:55:40
1757494540,0.061035,-0.915527,0.183105,2025-09-10 08:55:40
1757494540,0.061035,-0.915527,0.183105,2025-09-10 08:55:40
1757494540,0.061035,-0.915527,0.183105,2025-09-10 08:55:40
1757494541,0.12207,-0.915527,0.183105,2025-09-10 08:55:41
1757494541,0.061035,-0.854492,0.183105,2025-09-10 08:55:41
1757494541,0.061035,-0.915527,0.183105,2025-09-10 08:55:41
1757494542,0.061035,-0.854492,0.183105,2025-09-10 08:55:42
1757494542,0.061035,-0.854492,0.183105,2025-09-10 08:55:42
1757494542,0.061035,-0.854492,0.244141,2025-09-10 08:55:42
1757494542,0.061035,-0.854492,0.183105,2025-09-10 08:55:42
1757494543,0.061035,-0.915527,0.12207,2025-09-10 08:55:43
1757494543,0.061035,-0.854492,0.183105,2025-09-10 08:55:43
1757494543,0.061035,-0.854492,0.183105,2025-09-10 08:55:43
1757494544,0.061035,-0.854492,0.183105,2025-09-10 08:55:44
1757494544,0.061035,-0.854492,0.183105,2025-09-10 08:55:44
1757494544,0.061035,-0.854492,0.183105,2025-09-10 08:55:44
1757494544,0.061035,-0.854492,0.183105,2025-09-10 08:55:44
1757494545,0.061035,-0.854492,0.12207,2025-09-10 08:55:45
1757494545,0.061035,-0.854492,0.183105,2025-09-10 08:55:45
1757494545,0.061035,-0.915527,0.183105,2025-09-10 08:55:45
1757494546,0.061035,-0.854492,0.183105,2025-09-10 08:55:46
1757494546,0.061035,-0.854492,0.183105,2025-09-10 08:55:46
1757494546,0.12207,-0.854492,0.183105,2025-09-10 08:55:46
1757494546,0.061035,-0.854492,0.183105,2025-09-10 08:55:46
1757494547,0.061035,-0.854492,0.183105,2025-09-10 08:55:47
1757494547,0.061035,-0.915527,0.183105,2025-09-10 08:55:47
1757494547,0.061035,-0.854492,0.183105,2025-09-10 08:55:47
1757494548,0.061035,-0.915527,0.12207,2025-09-10 08:55:48
1757494548,0.061035,-0.854492,0.183105,2025-09-10 08:55:48
1757494548,0.061035,-0.854492,0.183105,2025-09-10 08:55:48
1757494548,0.061035,-0.915527,0.183105,2025-09-10 08:55:48
1757494549,0.061035,-0.854492,0.183105,2025-09-10 08:55:49
1757494549,0.061035,-0.854492,0.183105,2025-09-10 08:55:49
1757494549,0.061035,-0.854492,0.183105,2025-09-10 08:55:49
1757494550,0.12207,-0.854492,0.183105,2025-09-10 08:55:50
1757494550,0.061035,-0.854492,0.183105,2025-09-10 08:55:50
1757494550,0.12207,-0.915527,0.183105,2025-09-10 08:55:50
1757494550,0.0,-0.854492,0.12207,2025-09-10 08:55:50
1757494551,0.061035,-0.915527,0.12207,2025-09-10 08:55:51
1757494551,0.12207,-0.854492,0.12207,2025-09-10 08:55:51
1757494551,0.061035,-0.854492,0.183105,2025-09-10 08:55:51
1757494552,0.061035,-0.854492,0.183105,2025-09-10 08:55:52
1757494552,0.061035,-0.854492,0.183105,2025-09-10 08:55:52
1757494552,0.061035,-0.854492,0.183105,2025-09-10 08:55:52
1757494552,0.061035,-0.915527,0.12207,2025-09-10 08:55:52
1757494553,0.061035,-0.854492,0.183105,2025-09-10 08:55:53
1757494553,0.061035,-0.854492,0.12207,2025-09-10 08:55:53
1757494553,0.061035,-0.854492,0.183105,2025-09-10 08:55:53
1757494554,0.061035,-0.854492,0.183105,2025-09-10 08:55:54
1757494554,0.061035,-0.915527,0.183105,2025-09-10 08:55:54
1757494554,0.061035,-0.854492,0.183105,2025-09-10 08:55:54
1757494554,0.12207,-0.915527,0.183105,2025-09-10 08:55:54
1757494555,0.12207,-0.915527,0.183105,2025-09-10 08:55:55
1757494555,0.061035,-0.915527,0.183105,2025-09-10 08:55:55
1757494555,0.12207,-0.854492,0.183105,2025-09-10 08:55:55
1757494556,0.061035,-0.915527,0.183105,2025-09-10 08:55:56
1757494556,0.061035,-0.793457,0.183105,2025-09-10 08:55:56
1757494556,0.061035,-0.915527,0.183105,2025-09-10 08:55:56
1757494556,0.061035,-0.854492,0.183105,2025-09-10 08:55:56
1757494557,0.061035,-0.854492,0.183105,2025-09-10 08:55:57
1757494557,0.061035,-0.854492,0.183105,2025-09-10 08:55:57
1757494557,0.061035,-0.854492,0.183105,2025-09-10 08:55:57
1757494558,0.061035,-0.915527,0.183105,2025-09-10 08:55:58
1757494558,0.061035,-0.854492,0.183105,2025-09-10 08:55:58
1757494558,0.061035,-0.915527,0.183105,2025-09-10 08:55:58
1757494558,0.0,-0.915527,0.12207,2025-09-10 08:55:58
1757494559,0.061035,-0.915527,0.183105,2025-09-10 08:55:59
1757494559,0.061035,-0.854492,0.183105,2025-09-10 08:55:59
1757494559,0.061035,-0.854492,0.12207,2025-09-10 08:55:59
1757494560,0.061035,-0.915527,0.183105,2025-09-10 08:56:00
1757494560,0.061035,-0.854492,0.183105,2025-09-10 08:56:00
1757494560,0.061035,-0.854492,0.183105,2025-09-10 08:56:00
1757494560,0.061035,-0.854492,0.183105,2025-09-10 08:56:00
1757494561,0.061035,-0.854492,0.183105,2025-09-10 08:56:01
1757494561,0.061035,-0.854492,0.12207,2025-09-10 08:56:01
1757494561,0.061035,-0.915527,0.183105,2025-09-10 08:56:01
1757494562,0.061035,-0.915527,0.12207,2025-09-10 08:56:02
1757494562,0.0,-0.915527,0.183105,2025-09-10 08:56:02
1757494562,0.061035,-0.915527,0.183105,2025-09-10 08:56:02
1757494562,0.061035,-0.915527,0.183105,2025-09-10 08:56:02
1757494563,0.061035,-0.915527,0.183105,2025-09-10 08:56:03
1757494563,0.061035,-0.854492,0.183105,2025-09-10 08:56:03
1757494563,0.061035,-0.854492,0.183105,2025-09-10 08:56:03
1757494564,0.061035,-0.854492,0.183105,2025-09-10 08:56:04
1757494564,0.061035,-0.854492,0.183105,2025-09-10 08:56:04
1757494564,0.061035,-0.854492,0.183105,2025-09-10 08:56:04
1757494564,0.061035,-0.854492,0.12207,2025-09-10 08:56:04
1757494565,0.061035,-0.915527,0.183105,2025-09-10 08:56:05
1757494565,0.061035,-0.915527,0.183105,2025-09-10 08:56:05
1757494565,0.061035,-0.854492,0.183105,2025-09-10 08:56:05
1757494566,0.061035,-0.854492,0.183105,2025-09-10 08:56:06
1757494566,0.061035,-0.854492,0.183105,2025-09-10 08:56:06
1757494566,0.061035,-0.854492,0.183105,2025-09-10 08:56:06
1757494566,0.061035,-0.854492,0.183105,2025-09-10 08:56:06
1757494567,0.061035,-0.854492,0.183105,2025-09-10 08:56:07
1757494567,0.061035,-0.915527,0.183105,2025-09-10 08:56:07
1757494567,0.061035,-0.854492,0.183105,2025-09-10 08:56:07
1757494568,0.061035,-0.915527,0.183105,2025-09-10 08:56:08
1757494568,0.12207,-0.854492,0.183105,2025-09-10 08:56:08
1757494568,0.061035,-0.854492,0.183105,2025-09-10 08:56:08
1757494568,0.061035,-0.854492,0.183105,2025-09-10 08:56:08
1757494569,0.061035,-0.915527,0.183105,2025-09-10 08:56:09
1757494569,0.061035,-0.854492,0.183105,2025-09-10 08:56:09
1757494569,0.061035,-0.854492,0.183105,2025-09-10 08:56:09
1757494570,0.061035,-0.854492,0.183105,2025-09-10 08:56:10
1757494570,0.061035,-0.854492,0.183105,2025-09-10 08:56:10
1757494570,0.061035,-0.915527,0.12207,2025-09-10 08:56:10
1757494571,0.061035,-0.854492,0.183105,2025-09-10 08:56:11
1757494571,0.061035,-0.915527,0.183105,2025-09-10 08:56:11
1757494571,0.061035,-0.854492,0.183105,2025-09-10 08:56:11
1757494571,0.061035,-0.854492,0.183105,2025-09-10 08:56:11
1757494572,0.0,-0.854492,0.183105,2025-09-10 08:56:12
1757494572,0.061035,-0.915527,0.183105,2025-09-10 08:56:12
1757494572,0.061035,-0.854492,0.12207,2025-09-10 08:56:12
1757494573,0.061035,-0.854492,0.183105,2025-09-10 08:56:13
1757494573,0.061035,-0.915527,0.183105,2025-09-10 08:56:13
1757494573,0.061035,-0.915527,0.183105,2025-09-10 08:56:13
1757494573,0.061035,-0.915527,0.183105,2025-09-10 08:56:13
1757494574,0.061035,-0.854492,0.183105,2025-09-10 08:56:14
1757494574,0.061035,-0.915527,0.183105,2025-09-10 08:56:14
1757494574,0.0,-0.854492,0.183105,2025-09-10 08:56:14
1757494575,0.061035,-0.915527,0.244141,2025-09-10 08:56:15
1757494575,0.061035,-0.854492,0.183105,2025-09-10 08:56:15
1757494575,0.061035,-0.854492,0.183105,2025-09-10 08:56:15
1757494575,0.061035,-0.854492,0.183105,2025-09-10 08:56:15
1757494576,0.061035,-0.915527,0.183105,2025-09-10 08:56:16
1757494576,0.061035,-0.854492,0.183105,2025-09-10 08:56:16
1757494576,0.061035,-0.915527,0.183105,2025-09-10 08:56:16
1757494577,0.061035,-0.854492,0.183105,2025-09-10 08:56:17
1757494577,0.061035,-0.854492,0.183105,2025-09-10 08:56:17
1757494577,0.061035,-0.854492,0.183105,2025-09-10 08:56:17
1757494577,0.061035,-0.854492,0.183105,2025-09-10 08:56:17
1757494578,0.061035,-0.854492,0.183105,2025-09-10 08:56:18
1757494578,0.061035,-0.915527,0.183105,2025-09-10 08:56:18
1757494578,0.061035,-0.854492,0.183105,2025-09-10 08:56:18
1757494579,0.061035,-0.854492,0.183105,2025-09-10 08:56:19
1757494579,0.061035,-0.854492,0.183105,2025-09-10 08:56:19
1757494579,0.061035,-0.915527,0.183105,2025-09-10 08:56:19
1757494579,0.061035,-0.915527,0.183105,2025-09-10 08:56:19
1757494580,0.061035,-0.854492,0.183105,2025-09-10 08:56:20
1757494580,0.061035,-0.854492,0.12207,2025-09-10 08:56:20
1757494580,0.061035,-0.854492,0.183105,2025-09-10 08:56:20
1757494581,0.061035,-0.854492,0.183105,2025-09-10 08:56:21
1757494581,0.061035,-0.915527,0.183105,2025-09-10 08:56:21
1757494581,0.061035,-0.854492,0.183105,2025-09-10 08:56:21
1757494581,0.061035,-0.854492,0.183105,2025-09-10 08:56:21
1757494582,0.061035,-0.915527,0.183105,2025-09-10 08:56:22
1757494582,0.061035,-0.854492,0.183105,2025-09-10 08:56:22
1757494582,0.12207,-0.915527,0.183105,2025-09-10 08:56:22
1757494583,0.061035,-0.854492,0.183105,2025-09-10 08:56:23
1757494583,0.061035,-0.854492,0.183105,2025-09-10 08:56:23
1757494583,0.061035,-0.915527,0.183105,2025-09-10 08:56:23
1757494583,0.061035,-0.854492,0.183105,2025-09-10 08:56:23
1757494584,0.061035,-0.915527,0.183105,2025-09-10 08:56:24
1757494584,0.061035,-0.915527,0.183105,2025-09-10 08:56:24
1757494584,0.061035,-0.854492,0.183105,2025-09-10 08:56:24
1757494585,0.061035,-0.915527,0.183105,2025-09-10 08:56:25
1757494585,0.061035,-0.915527,0.183105,2025-09-10 08:56:25
1757494585,0.061035,-0.854492,0.183105,2025-09-10 08:56:25
1757494585,0.061035,-0.915527,0.183105,2025-09-10 08:56:25
1757494586,0.061035,-0.854492,0.183105,2025-09-10 08:56:26
1757494586,0.061035,-0.915527,0.183105,2025-09-10 08:56:26
1757494586,0.061035,-0.915527,0.183105,2025-09-10 08:56:26
1757494587,0.061035,-0.915527,0.12207,2025-09-10 08:56:27
1757494587,0.061035,-0.854492,0.183105,2025-09-10 08:56:27
1757494587,0.061035,-0.854492,0.183105,2025-09-10 08:56:27
1757494587,0.061035,-0.854492,0.183105,2025-09-10 08:56:27
1757494588,0.061035,-0.854492,0.12207,2025-09-10 08:56:28
1757494588,0.061035,-0.854492,0.183105,2025-09-10 08:56:28
1757494588,0.061035,-0.854492,0.183105,2025-09-10 08:56:28
1757494589,0.061035,-0.915527,0.183105,2025-09-10 08:56:29
1757494589,0.061035,-0.854492,0.183105,2025-09-10 08:56:29
1757494589,0.061035,-0.915527,0.183105,2025-09-10 08:56:29
1757494590,0.061035,-0.854492,0.183105,2025-09-10 08:56:30
1757494590,0.061035,-0.915527,0.183105,2025-09-10 08:56:30
1757494590,0.061035,-0.854492,0.183105,2025-09-10 08:56:30
1757494590,0.061035,-0.854492,0.183105,2025-09-10 08:56:30
1757494591,0.061035,-0.854492,0.183105,2025-09-10 08:56:31
1757494591,0.061035,-0.854492,0.183105,2025-09-10 08:56:31
1757494591,0.061035,-0.854492,0.183105,2025-09-10 08:56:31
1757494592,0.0,-0.854492,0.183105,2025-09-10 08:56:32
1757494592,0.061035,-0.854492,0.183105,2025-09-10 08:56:32
1757494592,0.061035,-0.854492,0.183105,2025-09-10 08:56:32
1757494592,0.061035,-0.854492,0.183105,2025-09-10 08:56:32
1757494593,0.061035,-0.915527,0.12207,2025-09-10 08:56:33
1757494593,0.061035,-0.854492,0.183105,2025-09-10 08:56:33
1757494593,0.061035,-0.915527,0.183105,2025-09-10 08:56:33
1757494594,0.061035,-0.915527,0.183105,2025-09-10 08:56:34
1757494594,0.061035,-0.854492,0.183105,2025-09-10 08:56:34
1757494594,0.061035,-0.854492,0.183105,2025-09-10 08:56:34
1757494594,0.061035,-0.854492,0.183105,2025-09-10 08:56:34
1757494595,0.061035,-0.915527,0.183105,2025-09-10 08:56:35
1757494595,0.061035,-0.854492,0.183105,2025-09-10 08:56:35
1757494595,0.061035,-0.854492,0.183105,2025-09-10 08:56:35
1757494596,0.061035,-0.854492,0.183105,2025-09-10 08:56:36
1757494596,0.061035,-0.854492,0.183105,2025-09-10 08:56:36
1757494596,0.061035,-0.854492,0.183105,2025-09-10 08:56:36
1757494596,0.061035,-0.915527,0.183105,2025-09-10 08:56:36
1757494597,0.061035,-0.854492,0.183105,2025-09-10 08:56:37
1757494597,0.061035,-0.854492,0.183105,2025-09-10 08:56:37
1757494597,0.061035,-0.854492,0.183105,2025-09-10 08:56:37
1757494598,0.061035,-0.854492,0.183105,2025-09-10 08:56:38
1757494598,0.061035,-0.854492,0.183105,2025-09-10 08:56:38
1757494598,0.061035,-0.854492,0.183105,2025-09-10 08:56:38
1757494598,0.061035,-0.854492,0.183105,2025-09-10 08:56:38
1757494599,0.061035,-0.854492,0.183105,2025-09-10 08:56:39
1757494599,0.061035,-0.854492,0.183105,2025-09-10 08:56:39
1757494599,0.061035,-0.854492,0.183105,2025-09-10 08:56:39
1757494600,0.061035,-0.915527,0.183105,2025-09-10 08:56:40
1757494600,0.061035,-0.854492,0.183105,2025-09-10 08:56:40
1757494600,0.0,-0.854492,0.12207,2025-09-10 08:56:40
1757494600,0.061035,-0.854492,0.183105,2025-09-10 08:56:40
1757494601,0.061035,-0.854492,0.183105,2025-09-10 08:56:41
1757494601,0.061035,-0.915527,0.183105,2025-09-10 08:56:41
1757494601,0.061035,-0.915527,0.183105,2025-09-10 08:56:41
1757494602,0.061035,-0.915527,0.183105,2025-09-10 08:56:42
1757494602,0.061035,-0.915527,0.183105,2025-09-10 08:56:42
1757494602,0.061035,-0.854492,0.183105,2025-09-10 08:56:42
1757494602,0.061035,-0.915527,0.183105,2025-09-10 08:56:42
1757494603,0.061035,-0.854492,0.183105,2025-09-10 08:56:43
1757494603,0.061035,-0.915527,0.12207,2025-09-10 08:56:43
1757494603,0.061035,-0.915527,0.183105,2025-09-10 08:56:43
1757494604,0.061035,-0.854492,0.183105,2025-09-10 08:56:44
1757494604,0.061035,-0.854492,0.183105,2025-09-10 08:56:44
1757494604,0.061035,-0.854492,0.183105,2025-09-10 08:56:44
1757494604,0.12207,-0.854492,0.183105,2025-09-10 08:56:44
1757494605,0.061035,-0.915527,0.183105,2025-09-10 08:56:45
1757494605,0.061035,-0.854492,0.12207,2025-09-10 08:56:45
1757494605,0.061035,-0.915527,0.183105,2025-09-10 08:56:45
1757494606,0.061035,-0.854492,0.183105,2025-09-10 08:56:46
1757494606,0.12207,-0.854492,0.183105,2025-09-10 08:56:46
1757494606,0.061035,-0.854492,0.183105,2025-09-10 08:56:46
1757494606,0.061035,-0.915527,0.183105,2025-09-10 08:56:46
1757494607,0.061035,-0.854492,0.183105,2025-09-10 08:56:47
1757494607,0.061035,-0.915527,0.183105,2025-09-10 08:56:47
1757494607,0.061035,-0.854492,0.183105,2025-09-10 08:56:47
1757494608,0.061035,-0.915527,0.183105,2025-09-10 08:56:48
1757494608,0.061035,-0.915527,0.183105,2025-09-10 08:56:48
1757494608,0.061035,-0.854492,0.183105,2025-09-10 08:56:48
1757494608,0.061035,-0.854492,0.183105,2025-09-10 08:56:48
1757494609,0.061035,-0.854492,0.183105,2025-09-10 08:56:49
1757494609,0.061035,-0.854492,0.183105,2025-09-10 08:56:49
1757494609,0.061035,-0.915527,0.183105,2025-09-10 08:56:49
1757494610,0.12207,-0.915527,0.183105,2025-09-10 08:56:50
1757494610,0.061035,-0.854492,0.183105,2025-09-10 08:56:50
1757494610,0.061035,-0.854492,0.183105,2025-09-10 08:56:50
1757494610,0.061035,-0.854492,0.183105,2025-09-10 08:56:50
1757494611,0.061035,-0.854492,0.183105,2025-09-10 08:56:51
1757494611,0.061035,-0.854492,0.183105,2025-09-10 08:56:51
1757494611,0.061035,-0.854492,0.183105,2025-09-10 08:56:51
1757494612,0.061035,-0.854492,0.183105,2025-09-10 08:56:52
1757494612,0.061035,-0.915527,0.183105,2025-09-10 08:56:52
1757494612,0.061035,-0.854492,0.183105,2025-09-10 08:56:52
1757494612,0.12207,-0.854492,0.183105,2025-09-10 08:56:52
1757494613,0.061035,-0.854492,0.183105,2025-09-10 08:56:53
1757494613,0.061035,-0.915527,0.12207,2025-09-10 08:56:53
1757494613,0.061035,-0.854492,0.183105,2025-09-10 08:56:53
1757494614,0.061035,-0.854492,0.183105,2025-09-10 08:56:54
1757494614,0.061035,-0.854492,0.183105,2025-09-10 08:56:54
1757494614,0.12207,-0.854492,0.183105,2025-09-10 08:56:54
1757494614,0.12207,-0.915527,0.183105,2025-09-10 08:56:54
1757494615,0.061035,-0.915527,0.183105,2025-09-10 08:56:55
1757494615,0.061035,-0.915527,0.12207,2025-09-10 08:56:55
1757494615,0.061035,-0.854492,0.183105,2025-09-10 08:56:55
1757494616,0.061035,-0.915527,0.183105,2025-09-10 08:56:56
1757494616,0.061035,-0.854492,0.183105,2025-09-10 08:56:56
1757494616,0.061035,-0.915527,0.183105,2025-09-10 08:56:56
1757494616,0.061035,-0.854492,0.183105,2025-09-10 08:56:56
1757494617,0.061035,-0.854492,0.183105,2025-09-10 08:56:57
1757494617,0.061035,-0.854492,0.183105,2025-09-10 08:56:57
1757494617,0.061035,-0.915527,0.183105,2025-09-10 08:56:57
1757494618,0.061035,-0.854492,0.183105,2025-09-10 08:56:58
1757494618,0.061035,-0.854492,0.12207,2025-09-10 08:56:58
1757494618,0.12207,-0.854492,0.12207,2025-09-10 08:56:58
1757494619,0.061035,-0.915527,0.183105,2025-09-10 08:56:59
1757494619,0.061035,-0.854492,0.183105,2025-09-10 08:56:59
1757494619,0.061035,-0.854492,0.183105,2025-09-10 08:56:59
1757494619,0.061035,-0.854492,0.183105,2025-09-10 08:56:59
1757494620,0.061035,-0.854492,0.183105,2025-09-10 08:57:00
1757494620,0.061035,-0.854492,0.183105,2025-09-10 08:57:00
1757494621,0.061035,-0.854492,0.183105,2025-09-10 08:57:01
1757494621,0.061035,-0.854492,0.183105,2025-09-10 08:57:01
1757494621,0.061035,-0.854492,0.183105,2025-09-10 08:57:01
1757494621,0.061035,-0.854492,0.183105,2025-09-10 08:57:01
1757494622,0.061035,-0.854492,0.12207,2025-09-10 08:57:02
1757494622,0.061035,-0.854492,0.183105,2025-09-10 08:57:02
1757494622,0.061035,-0.854492,0.183105,2025-09-10 08:57:02
1757494623,0.061035,-0.854492,0.183105,2025-09-10 08:57:03
1757494623,0.061035,-0.854492,0.183105,2025-09-10 08:57:03
1757494623,0.061035,-0.915527,0.183105,2025-09-10 08:57:03
1757494623,0.061035,-0.854492,0.12207,2025-09-10 08:57:03
1757494624,0.061035,-0.854492,0.183105,2025-09-10 08:57:04
1757494624,0.061035,-0.854492,0.183105,2025-09-10 08:57:04
1757494624,0.061035,-0.854492,0.183105,2025-09-10 08:57:04
1757494625,0.061035,-0.854492,0.183105,2025-09-10 08:57:05
1757494625,0.061035,-0.854492,0.183105,2025-09-10 08:57:05
1757494625,0.061035,-0.854492,0.12207,2025-09-10 08:57:05
1757494626,0.061035,-0.915527,0.183105,2025-09-10 08:57:06
1757494626,0.061035,-0.854492,0.183105,2025-09-10 08:57:06
1757494626,0.061035,-0.854492,0.183105,2025-09-10 08:57:06
1757494626,0.12207,-0.915527,0.183105,2025-09-10 08:57:06
1757494627,0.061035,-0.854492,0.183105,2025-09-10 08:57:07
1757494627,0.061035,-0.854492,0.12207,2025-09-10 08:57:07
1757494627,0.061035,-0.854492,0.12207,2025-09-10 08:57:07
1757494628,0.061035,-0.854492,0.183105,2025-09-10 08:57:08
1757494628,0.12207,-0.915527,0.183105,2025-09-10 08:57:08
1757494628,0.061035,-0.854492,0.183105,2025-09-10 08:57:08
1757494628,0.061035,-0.854492,0.183105,2025-09-10 08:57:08
1757494629,0.061035,-0.854492,0.183105,2025-09-10 08:57:09
1757494629,0.0,-0.854492,0.183105,2025-09-10 08:57:09
1757494629,0.061035,-0.854492,0.12207,2025-09-10 08:57:09
1757494630,0.061035,-0.915527,0.12207,2025-09-10 08:57:10
1757494630,0.061035,-0.915527,0.183105,2025-09-10 08:57:10
1757494630,0.061035,-0.854492,0.183105,2025-09-10 08:57:10
1757494630,0.061035,-0.854492,0.183105,2025-09-10 08:57:10
1757494631,0.061035,-0.854492,0.183105,2025-09-10 08:57:11
1757494631,0.12207,-0.854492,0.183105,2025-09-10 08:57:11
1757494631,0.061035,-0.854492,0.183105,2025-09-10 08:57:11
1757494632,0.061035,-0.854492,0.183105,2025-09-10 08:57:12
1757494632,0.061035,-0.915527,0.183105,2025-09-10 08:57:12
1757494632,0.061035,-0.854492,0.183105,2025-09-10 08:57:12
1757494632,0.061035,-0.854492,0.183105,2025-09-10 08:57:12
1757494633,0.061035,-0.854492,0.183105,2025-09-10 08:57:13
1757494633,0.061035,-0.915527,0.183105,2025-09-10 08:57:13
1757494633,0.061035,-0.854492,0.183105,2025-09-10 08:57:13
1757494634,0.061035,-0.854492,0.183105,2025-09-10 08:57:14
1757494634,0.061035,-0.854492,0.183105,2025-09-10 08:57:14
1757494634,0.061035,-0.854492,0.183105,2025-09-10 08:57:14
1757494634,0.061035,-0.854492,0.183105,2025-09-10 08:57:14
1757494635,0.061035,-0.854492,0.183105,2025-09-10 08:57:15
1757494635,0.061035,-0.915527,0.183105,2025-09-10 08:57:15
1757494635,0.061035,-0.854492,0.183105,2025-09-10 08:57:15
1757494636,0.0,-0.854492,0.183105,2025-09-10 08:57:16
1757494636,0.061035,-0.854492,0.183105,2025-09-10 08:57:16
1757494636,0.061035,-0.854492,0.183105,2025-09-10 08:57:16
1757494636,0.12207,-0.854492,0.183105,2025-09-10 08:57:16
1757494637,0.061035,-0.854492,0.183105,2025-09-10 08:57:17
1757494637,0.12207,-0.854492,0.183105,2025-09-10 08:57:17
1757494637,0.061035,-0.854492,0.183105,2025-09-10 08:57:17
1757494638,0.061035,-0.854492,0.183105,2025-09-10 08:57:18
1757494638,0.061035,-0.854492,0.183105,2025-09-10 08:57:18
1757494638,0.061035,-0.915527,0.183105,2025-09-10 08:57:18
1757494638,0.061035,-0.854492,0.183105,2025-09-10 08:57:18
1757494639,0.061035,-0.854492,0.183105,2025-09-10 08:57:19
1757494639,0.061035,-0.854492,0.183105,2025-09-10 08:57:19
1757494639,0.061035,-0.854492,0.183105,2025-09-10 08:57:19
1757494640,0.0,-0.854492,0.183105,2025-09-10 08:57:20
1757494640,0.061035,-0.854492,0.183105,2025-09-10 08:57:20
1757494640,0.12207,-0.915527,0.183105,2025-09-10 08:57:20
1757494640,0.061035,-0.854492,0.12207,2025-09-10 08:57:20
1757494641,0.061035,-0.854492,0.183105,2025-09-10 08:57:21
1757494641,0.061035,-0.854492,0.183105,2025-09-10 08:57:21
1757494641,0.061035,-0.854492,0.183105,2025-09-10 08:57:21
1757494642,0.061035,-0.854492,0.183105,2025-09-10 08:57:22
1757494642,0.061035,-0.854492,0.183105,2025-09-10 08:57:22
1757494642,0.061035,-0.915527,0.183105,2025-09-10 08:57:22
1757494642,0.061035,-0.915527,0.183105,2025-09-10 08:57:22
1757494643,0.061035,-0.854492,0.183105,2025-09-10 08:57:23
1757494643,0.061035,-0.915527,0.183105,2025-09-10 08:57:23
1757494643,0.061035,-0.854492,0.183105,2025-09-10 08:57:23
1757494644,0.061035,-0.915527,0.183105,2025-09-10 08:57:24
1757494644,0.061035,-0.854492,0.183105,2025-09-10 08:57:24
1757494644,0.061035,-0.915527,0.183105,2025-09-10 08:57:24
1757494645,0.061035,-0.915527,0.183105,2025-09-10 08:57:25
1757494645,0.061035,-0.915527,0.183105,2025-09-10 08:57:25
1757494645,0.12207,-0.854492,0.183105,2025-09-10 08:57:25
1757494645,0.061035,-0.854492,0.183105,2025-09-10 08:57:25
1757494646,0.061035,-0.854492,0.183105,2025-09-10 08:57:26
1757494646,0.12207,-0.854492,0.183105,2025-09-10 08:57:26
1757494646,0.061035,-0.915527,0.183105,2025-09-10 08:57:26
1757494647,0.061035,-0.854492,0.183105,2025-09-10 08:57:27
1757494647,0.061035,-0.854492,0.183105,2025-09-10 08:57:27
1757494647,0.061035,-0.854492,0.183105,2025-09-10 08:57:27
1757494647,0.0,-0.854492,0.183105,2025-09-10 08:57:27
1757494648,0.061035,-0.854492,0.183105,2025-09-10 08:57:28
1757494648,0.061035,-0.854492,0.183105,2025-09-10 08:57:28
1757494648,0.061035,-0.854492,0.183105,2025-09-10 08:57:28
1757494649,0.061035,-0.915527,0.183105,2025-09-10 08:57:29
1757494649,0.12207,-0.854492,0.183105,2025-09-10 08:57:29
1757494649,0.061035,-0.854492,0.183105,2025-09-10 08:57:29
1757494649,0.061035,-0.854492,0.12207,2025-09-10 08:57:29
1757494650,0.061035,-0.854492,0.183105,2025-09-10 08:57:30
1757494650,0.0,-0.854492,0.183105,2025-09-10 08:57:30
1757494650,0.061035,-0.854492,0.183105,2025-09-10 08:57:30
1757494651,0.061035,-0.854492,0.183105,2025-09-10 08:57:31
1757494651,0.0,-0.854492,0.183105,2025-09-10 08:57:31
1757494651,0.061035,-0.915527,0.183105,2025-09-10 08:57:31
1757494651,0.061035,-0.854492,0.183105,2025-09-10 08:57:31
1757494652,0.061035,-0.854492,0.183105,2025-09-10 08:57:32
1757494652,0.061035,-0.854492,0.183105,2025-09-10 08:57:32
1757494652,0.061035,-0.915527,0.183105,2025-09-10 08:57:32
1757494653,0.061035,-0.915527,0.183105,2025-09-10 08:57:33
1757494653,0.12207,-0.854492,0.183105,2025-09-10 08:57:33
1757494653,0.061035,-0.854492,0.183105,2025-09-10 08:57:33
1757494653,0.061035,-0.915527,0.12207,2025-09-10 08:57:33
1757494654,0.061035,-0.854492,0.12207,2025-09-10 08:57:34
1757494654,0.061035,-0.854492,0.183105,2025-09-10 08:57:34
1757494654,0.061035,-0.854492,0.183105,2025-09-10 08:57:34
1757494655,0.12207,-0.915527,0.183105,2025-09-10 08:57:35
1757494655,0.061035,-0.854492,0.183105,2025-09-10 08:57:35
1757494655,0.061035,-0.854492,0.183105,2025-09-10 08:57:35
1757494656,0.061035,-0.854492,0.183105,2025-09-10 08:57:36
1757494656,0.061035,-0.854492,0.183105,2025-09-10 08:57:36
1757494656,0.12207,-0.915527,0.183105,2025-09-10 08:57:36
1757494656,0.061035,-0.854492,0.183105,2025-09-10 08:57:36
1757494657,0.061035,-0.915527,0.183105,2025-09-10 08:57:37
1757494657,0.061035,-0.854492,0.183105,2025-09-10 08:57:37
1757494657,0.061035,-0.854492,0.183105,2025-09-10 08:57:37
1757494657,0.061035,-0.915527,0.183105,2025-09-10 08:57:37
1757494658,0.061035,-0.854492,0.183105,2025-09-10 08:57:38
1757494658,0.061035,-0.854492,0.183105,2025-09-10 08:57:38
1757494658,0.061035,-0.915527,0.183105,2025-09-10 08:57:38
1757494659,0.061035,-0.854492,0.183105,2025-09-10 08:57:39
1757494659,0.061035,-0.854492,0.183105,2025-09-10 08:57:39
1757494659,0.061035,-0.854492,0.183105,2025-09-10 08:57:39
1757494659,0.061035,-0.915527,0.183105,2025-09-10 08:57:39
1757494660,0.061035,-0.854492,0.183105,2025-09-10 08:57:40
1757494660,0.061035,-0.854492,0.183105,2025-09-10 08:57:40
1757494660,0.061035,-0.793457,0.183105,2025-09-10 08:57:40
1757494661,0.061035,-0.854492,0.183105,2025-09-10 08:57:41
1757494661,0.061035,-0.854492,0.183105,2025-09-10 08:57:41
1757494661,0.061035,-0.854492,0.183105,2025-09-10 08:57:41
1757494661,0.061035,-0.854492,0.183105,2025-09-10 08:57:41
1757494662,0.061035,-0.854492,0.183105,2025-09-10 08:57:42
1757494662,0.061035,-0.915527,0.183105,2025-09-10 08:57:42
1757494662,0.061035,-0.854492,0.183105,2025-09-10 08:57:42
1757494663,0.061035,-0.915527,0.183105,2025-09-10 08:57:43
1757494663,0.061035,-0.854492,0.183105,2025-09-10 08:57:43
1757494663,0.061035,-0.915527,0.183105,2025-09-10 08:57:43
1757494663,0.12207,-0.854492,0.183105,2025-09-10 08:57:43
1757494664,0.061035,-0.854492,0.183105,2025-09-10 08:57:44
1757494664,0.061035,-0.854492,0.183105,2025-09-10 08:57:44
1757494664,0.12207,-0.915527,0.183105,2025-09-10 08:57:44
1757494665,0.061035,-0.915527,0.183105,2025-09-10 08:57:45
1757494665,0.061035,-0.915527,0.183105,2025-09-10 08:57:45
1757494665,0.061035,-0.854492,0.183105,2025-09-10 08:57:45
1757494665,0.061035,-0.854492,0.183105,2025-09-10 08:57:45
1757494666,0.12207,-0.915527,0.183105,2025-09-10 08:57:46
1757494666,0.061035,-0.854492,0.183105,2025-09-10 08:57:46
1757494666,0.061035,-0.854492,0.183105,2025-09-10 08:57:46
1757494667,0.12207,-0.854492,0.183105,2025-09-10 08:57:47
1757494667,0.061035,-0.854492,0.183105,2025-09-10 08:57:47
1757494667,0.061035,-0.915527,0.183105,2025-09-10 08:57:47
1757494667,0.061035,-0.854492,0.183105,2025-09-10 08:57:47
1757494668,0.061035,-0.854492,0.183105,2025-09-10 08:57:48
1757494668,0.061035,-0.854492,0.183105,2025-09-10 08:57:48
1757494668,0.061035,-0.854492,0.183105,2025-09-10 08:57:48
1757494669,0.12207,-0.915527,0.183105,2025-09-10 08:57:49
1757494669,0.061035,-0.854492,0.183105,2025-09-10 08:57:49
1757494669,0.061035,-0.854492,0.183105,2025-09-10 08:57:49
1757494669,0.061035,-0.915527,0.183105,2025-09-10 08:57:49
1757494670,0.061035,-0.854492,0.183105,2025-09-10 08:57:50
1757494670,0.12207,-0.915527,0.183105,2025-09-10 08:57:50
1757494670,0.061035,-0.915527,0.183105,2025-09-10 08:57:50
1757494671,0.061035,-0.854492,0.183105,2025-09-10 08:57:51
1757494671,0.061035,-0.854492,0.183105,2025-09-10 08:57:51
1757494671,0.061035,-0.854492,0.183105,2025-09-10 08:57:51
1757494672,0.061035,-0.854492,0.183105,2025-09-10 08:57:52
1757494672,0.061035,-0.854492,0.183105,2025-09-10 08:57:52
1757494672,0.061035,-0.854492,0.183105,2025-09-10 08:57:52
1757494672,0.061035,-0.854492,0.183105,2025-09-10 08:57:52
1757494673,0.061035,-0.854492,0.183105,2025-09-10 08:57:53
1757494673,0.061035,-0.854492,0.183105,2025-09-10 08:57:53
1757494673,0.061035,-0.854492,0.183105,2025-09-10 08:57:53
1757494674,0.061035,-0.915527,0.183105,2025-09-10 08:57:54
1757494674,0.061035,-0.854492,0.183105,2025-09-10 08:57:54
1757494674,0.12207,-0.915527,0.183105,2025-09-10 08:57:54
1757494674,0.061035,-0.854492,0.183105,2025-09-10 08:57:54
1757494675,0.061035,-0.915527,0.183105,2025-09-10 08:57:55
1757494675,0.061035,-0.854492,0.183105,2025-09-10 08:57:55
1757494675,0.061035,-0.854492,0.183105,2025-09-10 08:57:55
1757494676,0.061035,-0.854492,0.183105,2025-09-10 08:57:56
1757494676,0.061035,-0.915527,0.183105,2025-09-10 08:57:56
1757494676,0.061035,-0.854492,0.183105,2025-09-10 08:57:56
1757494676,0.061035,-0.854492,0.183105,2025-09-10 08:57:56
1757494677,0.061035,-0.854492,0.183105,2025-09-10 08:57:57
1757494677,0.061035,-0.854492,0.183105,2025-09-10 08:57:57
1757494677,0.061035,-0.854492,0.183105,2025-09-10 08:57:57
1757494678,0.061035,-0.915527,0.183105,2025-09-10 08:57:58
1757494678,0.061035,-0.854492,0.12207,2025-09-10 08:57:58
1757494678,0.061035,-0.854492,0.183105,2025-09-10 08:57:58
1757494678,0.061035,-0.854492,0.12207,2025-09-10 08:57:58
1757494679,0.061035,-0.915527,0.183105,2025-09-10 08:57:59
1757494679,0.061035,-0.915527,0.183105,2025-09-10 08:57:59
1757494679,0.061035,-0.915527,0.183105,2025-09-10 08:57:59
1757494680,0.061035,-0.854492,0.183105,2025-09-10 08:58:00
1757494680,0.061035,-0.854492,0.183105,2025-09-10 08:58:00
1757494680,0.061035,-0.915527,0.183105,2025-09-10 08:58:00
1757494680,0.061035,-0.854492,0.183105,2025-09-10 08:58:00
1757494681,0.061035,-0.854492,0.183105,2025-09-10 08:58:01
1757494681,0.061035,-0.915527,0.183105,2025-09-10 08:58:01
1757494681,0.061035,-0.915527,0.183105,2025-09-10 08:58:01
1757494682,0.061035,-0.854492,0.183105,2025-09-10 08:58:02
1757494682,0.061035,-0.854492,0.183105,2025-09-10 08:58:02
1757494682,0.12207,-0.915527,0.183105,2025-09-10 08:58:02
1757494682,0.061035,-0.854492,0.183105,2025-09-10 08:58:02
1757494683,0.061035,-0.915527,0.183105,2025-09-10 08:58:03
1757494683,0.061035,-0.915527,0.183105,2025-09-10 08:58:03
1757494683,0.061035,-0.915527,0.183105,2025-09-10 08:58:03
1757494684,0.061035,-0.854492,0.183105,2025-09-10 08:58:04
1757494684,0.061035,-0.854492,0.183105,2025-09-10 08:58:04
1757494684,0.061035,-0.854492,0.183105,2025-09-10 08:58:04
1757494685,0.061035,-0.854492,0.183105,2025-09-10 08:58:05
1757494685,0.061035,-0.854492,0.183105,2025-09-10 08:58:05
1757494685,0.061035,-0.854492,0.183105,2025-09-10 08:58:05
1757494685,0.061035,-0.854492,0.183105,2025-09-10 08:58:05
1757494686,0.061035,-0.915527,0.183105,2025-09-10 08:58:06
1757494686,0.061035,-0.915527,0.183105,2025-09-10 08:58:06
1757494686,0.061035,-0.915527,0.183105,2025-09-10 08:58:06
1757494687,0.12207,-0.854492,0.183105,2025-09-10 08:58:07
1757494687,0.061035,-0.854492,0.183105,2025-09-10 08:58:07
1757494687,0.12207,-0.915527,0.183105,2025-09-10 08:58:07
1757494687,0.061035,-0.854492,0.183105,2025-09-10 08:58:07
1757494688,0.061035,-0.915527,0.183105,2025-09-10 08:58:08
1757494688,0.061035,-0.854492,0.183105,2025-09-10 08:58:08
1757494688,0.061035,-0.854492,0.183105,2025-09-10 08:58:08
1757494688,0.061035,-0.915527,0.183105,2025-09-10 08:58:08
1757494689,0.061035,-0.915527,0.183105,2025-09-10 08:58:09
1757494689,0.061035,-0.854492,0.183105,2025-09-10 08:58:09
1757494689,0.061035,-0.854492,0.183105,2025-09-10 08:58:09
1757494690,0.061035,-0.854492,0.183105,2025-09-10 08:58:10
1757494690,0.061035,-0.854492,0.183105,2025-09-10 08:58:10
1757494690,0.061035,-0.854492,0.183105,2025-09-10 08:58:10
1757494690,0.12207,-0.854492,0.183105,2025-09-10 08:58:10
1757494691,0.061035,-0.854492,0.183105,2025-09-10 08:58:11
1757494691,0.061035,-0.854492,0.183105,2025-09-10 08:58:11
1757494691,0.061035,-0.915527,0.183105,2025-09-10 08:58:11
1757494692,0.12207,-0.854492,0.183105,2025-09-10 08:58:12
1757494692,0.061035,-0.854492,0.183105,2025-09-10 08:58:12
1757494692,0.061035,-0.915527,0.12207,2025-09-10 08:58:12
1757494692,0.061035,-0.915527,0.12207,2025-09-10 08:58:12
1757494693,0.061035,-0.915527,0.183105,2025-09-10 08:58:13
1757494693,0.061035,-0.854492,0.12207,2025-09-10 08:58:13
1757494693,0.061035,-0.854492,0.183105,2025-09-10 08:58:13
1757494694,0.061035,-0.854492,0.183105,2025-09-10 08:58:14
1757494694,0.061035,-0.854492,0.183105,2025-09-10 08:58:14
1757494694,0.061035,-0.854492,0.183105,2025-09-10 08:58:14
1757494694,0.061035,-0.915527,0.183105,2025-09-10 08:58:14
1757494695,0.061035,-0.854492,0.183105,2025-09-10 08:58:15
1757494695,0.061035,-0.854492,0.12207,2025-09-10 08:58:15
1757494695,0.061035,-0.854492,0.183105,2025-09-10 08:58:15
1757494696,0.061035,-0.854492,0.183105,2025-09-10 08:58:16
1757494696,0.061035,-0.854492,0.12207,2025-09-10 08:58:16
1757494696,0.061035,-0.854492,0.183105,2025-09-10 08:58:16
1757494696,0.061035,-0.854492,0.183105,2025-09-10 08:58:16
1757494697,0.061035,-0.854492,0.183105,2025-09-10 08:58:17
1757494697,0.061035,-0.915527,0.183105,2025-09-10 08:58:17
1757494697,0.12207,-0.854492,0.183105,2025-09-10 08:58:17
1757494698,0.061035,-0.854492,0.183105,2025-09-10 08:58:18
1757494698,0.061035,-0.915527,0.183105,2025-09-10 08:58:18
1757494698,0.061035,-0.854492,0.183105,2025-09-10 08:58:18
1757494698,0.061035,-0.854492,0.12207,2025-09-10 08:58:18
1757494699,0.061035,-0.854492,0.183105,2025-09-10 08:58:19
1757494699,0.061035,-0.915527,0.183105,2025-09-10 08:58:19
1757494699,0.061035,-0.854492,0.183105,2025-09-10 08:58:19
1757494700,0.12207,-0.854492,0.183105,2025-09-10 08:58:20
1757494700,0.12207,-0.915527,0.183105,2025-09-10 08:58:20
1757494700,0.061035,-0.854492,0.183105,2025-09-10 08:58:20
1757494700,0.061035,-0.854492,0.183105,2025-09-10 08:58:20
1757494701,0.12207,-0.915527,0.183105,2025-09-10 08:58:21
1757494701,0.061035,-0.854492,0.12207,2025-09-10 08:58:21
1757494701,0.061035,-0.854492,0.183105,2025-09-10 08:58:21
1757494702,0.061035,-0.854492,0.183105,2025-09-10 08:58:22
1757494702,0.12207,-0.854492,0.183105,2025-09-10 08:58:22
1757494702,0.061035,-0.854492,0.183105,2025-09-10 08:58:22
1757494702,0.061035,-0.854492,0.183105,2025-09-10 08:58:22
1757494703,0.061035,-0.854492,0.183105,2025-09-10 08:58:23
1757494703,0.061035,-0.854492,0.183105,2025-09-10 08:58:23
1757494703,0.061035,-0.915527,0.244141,2025-09-10 08:58:23
1757494704,0.061035,-0.915527,0.183105,2025-09-10 08:58:24
1757494704,0.061035,-0.854492,0.183105,2025-09-10 08:58:24
1757494704,0.061035,-0.915527,0.183105,2025-09-10 08:58:24
1757494704,0.061035,-0.854492,0.183105,2025-09-10 08:58:24
1757494705,0.061035,-0.854492,0.183105,2025-09-10 08:58:25
1757494705,0.061035,-0.915527,0.183105,2025-09-10 08:58:25
1757494705,0.12207,-0.915527,0.183105,2025-09-10 08:58:25
1757494706,0.061035,-0.915527,0.183105,2025-09-10 08:58:26
1757494706,0.061035,-0.854492,0.183105,2025-09-10 08:58:26
1757494706,0.061035,-0.915527,0.183105,2025-09-10 08:58:26
1757494706,0.061035,-0.854492,0.183105,2025-09-10 08:58:26
1757494707,0.061035,-0.854492,0.183105,2025-09-10 08:58:27
1757494707,0.0,-0.854492,0.183105,2025-09-10 08:58:27
1757494707,0.061035,-0.854492,0.183105,2025-09-10 08:58:27
1757494708,0.061035,-0.915527,0.183105,2025-09-10 08:58:28
1757494708,0.061035,-0.854492,0.183105,2025-09-10 08:58:28
1757494708,0.12207,-0.854492,0.183105,2025-09-10 08:58:28
1757494708,0.12207,-0.854492,0.183105,2025-09-10 08:58:28
1757494709,0.061035,-0.854492,0.183105,2025-09-10 08:58:29
1757494709,0.061035,-0.854492,0.183105,2025-09-10 08:58:29
1757494709,0.061035,-0.854492,0.183105,2025-09-10 08:58:29
1757494709,0.12207,-0.854492,0.183105,2025-09-10 08:58:29
1757494710,0.12207,-0.854492,0.183105,2025-09-10 08:58:30
1757494710,0.061035,-0.854492,0.183105,2025-09-10 08:58:30
1757494710,0.061035,-0.915527,0.12207,2025-09-10 08:58:30
1757494711,0.061035,-0.854492,0.183105,2025-09-10 08:58:31
1757494711,0.061035,-0.854492,0.183105,2025-09-10 08:58:31
1757494711,0.061035,-0.915527,0.183105,2025-09-10 08:58:31
1757494711,0.061035,-0.854492,0.183105,2025-09-10 08:58:31
1757494712,0.061035,-0.854492,0.183105,2025-09-10 08:58:32
1757494712,0.061035,-0.915527,0.183105,2025-09-10 08:58:32
1757494712,0.061035,-0.854492,0.183105,2025-09-10 08:58:32
1757494713,0.061035,-0.915527,0.183105,2025-09-10 08:58:33
1757494713,0.061035,-0.854492,0.183105,2025-09-10 08:58:33
1757494713,0.061035,-0.915527,0.183105,2025-09-10 08:58:33
1757494714,0.061035,-0.854492,0.183105,2025-09-10 08:58:34
1757494714,0.12207,-0.915527,0.12207,2025-09-10 08:58:34
1757494714,0.0,-0.854492,0.183105,2025-09-10 08:58:34
1757494714,0.061035,-0.854492,0.183105,2025-09-10 08:58:34
1757494715,0.061035,-0.915527,0.183105,2025-09-10 08:58:35
1757494715,0.061035,-0.854492,0.12207,2025-09-10 08:58:35
1757494715,0.061035,-0.854492,0.183105,2025-09-10 08:58:35
1757494716,0.061035,-0.854492,0.183105,2025-09-10 08:58:36
1757494716,0.061035,-0.854492,0.183105,2025-09-10 08:58:36
1757494716,0.061035,-0.915527,0.12207,2025-09-10 08:58:36
1757494716,0.061035,-0.915527,0.183105,2025-09-10 08:58:36
1757494717,0.061035,-0.854492,0.183105,2025-09-10 08:58:37
1757494717,0.061035,-0.854492,0.183105,2025-09-10 08:58:37
1757494717,0.061035,-0.915527,0.183105,2025-09-10 08:58:37
1757494718,0.061035,-0.854492,0.183105,2025-09-10 08:58:38
1757494718,0.061035,-0.854492,0.12207,2025-09-10 08:58:38
1757494718,0.061035,-0.854492,0.183105,2025-09-10 08:58:38
1757494718,0.12207,-0.915527,0.183105,2025-09-10 08:58:38
1757494719,0.061035,-0.915527,0.183105,2025-09-10 08:58:39
1757494719,0.061035,-0.915527,0.183105,2025-09-10 08:58:39
1757494719,0.061035,-0.854492,0.183105,2025-09-10 08:58:39
1757494720,0.061035,-0.854492,0.12207,2025-09-10 08:58:40
1757494720,0.061035,-0.915527,0.183105,2025-09-10 08:58:40
1757494720,0.061035,-0.854492,0.183105,2025-09-10 08:58:40
1757494720,0.061035,-0.915527,0.183105,2025-09-10 08:58:40
1757494721,0.061035,-0.854492,0.183105,2025-09-10 08:58:41
1757494721,0.061035,-0.915527,0.183105,2025-09-10 08:58:41
1757494721,0.061035,-0.915527,0.183105,2025-09-10 08:58:41
1757494722,0.12207,-0.915527,0.183105,2025-09-10 08:58:42
1757494722,0.061035,-0.854492,0.183105,2025-09-10 08:58:42
1757494722,0.061035,-0.915527,0.12207,2025-09-10 08:58:42
1757494722,0.061035,-0.854492,0.183105,2025-09-10 08:58:42
1757494723,0.061035,-0.854492,0.183105,2025-09-10 08:58:43
1757494723,0.061035,-0.854492,0.183105,2025-09-10 08:58:43
1757494723,0.061035,-0.854492,0.183105,2025-09-10 08:58:43
1757494724,0.061035,-0.793457,0.183105,2025-09-10 08:58:44
1757494724,0.061035,-0.915527,0.183105,2025-09-10 08:58:44
1757494724,0.061035,-0.854492,0.183105,2025-09-10 08:58:44
1757494724,0.061035,-0.915527,0.183105,2025-09-10 08:58:44
1757494725,0.12207,-0.854492,0.183105,2025-09-10 08:58:45
1757494725,0.061035,-0.854492,0.183105,2025-09-10 08:58:45
1757494725,0.061035,-0.854492,0.244141,2025-09-10 08:58:45
1757494726,0.061035,-0.915527,0.183105,2025-09-10 08:58:46
1757494726,0.12207,-0.854492,0.183105,2025-09-10 08:58:46
1757494726,0.061035,-0.854492,0.183105,2025-09-10 08:58:46
1757494726,0.061035,-0.854492,0.183105,2025-09-10 08:58:46
1757494727,0.061035,-0.915527,0.183105,2025-09-10 08:58:47
1757494727,0.061035,-0.915527,0.183105,2025-09-10 08:58:47
1757494727,0.061035,-0.854492,0.183105,2025-09-10 08:58:47
1757494728,0.061035,-0.854492,0.183105,2025-09-10 08:58:48
1757494728,0.061035,-0.915527,0.183105,2025-09-10 08:58:48
1757494728,0.061035,-0.854492,0.183105,2025-09-10 08:58:48
1757494728,0.061035,-0.854492,0.183105,2025-09-10 08:58:48
1757494729,0.061035,-0.854492,0.183105,2025-09-10 08:58:49
1757494729,0.061035,-0.854492,0.183105,2025-09-10 08:58:49
1757494729,0.061035,-0.915527,0.183105,2025-09-10 08:58:49
1757494730,0.061035,-0.854492,0.183105,2025-09-10 08:58:50
1757494730,0.061035,-0.854492,0.183105,2025-09-10 08:58:50
1757494730,0.061035,-0.854492,0.183105,2025-09-10 08:58:50
1757494730,0.061035,-0.915527,0.183105,2025-09-10 08:58:50
1757494731,0.061035,-0.854492,0.12207,2025-09-10 08:58:51
1757494731,0.061035,-0.915527,0.12207,2025-09-10 08:58:51
1757494731,0.061035,-0.854492,0.12207,2025-09-10 08:58:51
1757494732,0.061035,-0.915527,0.183105,2025-09-10 08:58:52
1757494732,0.061035,-0.854492,0.183105,2025-09-10 08:58:52
1757494732,0.061035,-0.915527,0.183105,2025-09-10 08:58:52
1757494732,0.061035,-0.854492,0.183105,2025-09-10 08:58:52
1757494733,0.061035,-0.854492,0.183105,2025-09-10 08:58:53
1757494733,0.061035,-0.915527,0.183105,2025-09-10 08:58:53
1757494733,0.061035,-0.854492,0.183105,2025-09-10 08:58:53
1757494734,0.061035,-0.854492,0.183105,2025-09-10 08:58:54
1757494734,0.12207,-0.854492,0.183105,2025-09-10 08:58:54
1757494734,0.061035,-0.854492,0.183105,2025-09-10 08:58:54
1757494735,0.061035,-0.854492,0.183105,2025-09-10 08:58:55
1757494735,0.061035,-0.854492,0.183105,2025-09-10 08:58:55
1757494735,0.061035,-0.915527,0.183105,2025-09-10 08:58:55
1757494735,0.061035,-0.915527,0.183105,2025-09-10 08:58:55
1757494736,0.061035,-0.915527,0.183105,2025-09-10 08:58:56
1757494736,0.061035,-0.854492,0.183105,2025-09-10 08:58:56
1757494736,0.061035,-0.854492,0.183105,2025-09-10 08:58:56
1757494737,0.061035,-0.854492,0.183105,2025-09-10 08:58:57
1757494737,0.061035,-0.915527,0.183105,2025-09-10 08:58:57
1757494737,0.061035,-0.854492,0.183105,2025-09-10 08:58:57
1757494737,0.061035,-0.854492,0.183105,2025-09-10 08:58:57
1757494738,0.12207,-0.915527,0.183105,2025-09-10 08:58:58
1757494738,0.061035,-0.854492,0.183105,2025-09-10 08:58:58
1757494738,0.061035,-0.854492,0.183105,2025-09-10 08:58:58
1757494739,0.061035,-0.915527,0.183105,2025-09-10 08:58:59
1757494739,0.061035,-0.854492,0.183105,2025-09-10 08:58:59
1757494739,0.061035,-0.854492,0.183105,2025-09-10 08:58:59
1757494739,0.061035,-0.854492,0.183105,2025-09-10 08:58:59
1757494740,0.061035,-0.854492,0.183105,2025-09-10 08:59:00
1757494740,0.061035,-0.915527,0.183105,2025-09-10 08:59:00
1757494740,0.061035,-0.854492,0.183105,2025-09-10 08:59:00
1757494740,0.061035,-0.854492,0.183105,2025-09-10 08:59:00
1757494741,0.061035,-0.854492,0.183105,2025-09-10 08:59:01
1757494741,0.061035,-0.915527,0.183105,2025-09-10 08:59:01
1757494741,0.061035,-0.854492,0.183105,2025-09-10 08:59:01
1757494742,0.061035,-0.854492,0.183105,2025-09-10 08:59:02
1757494742,0.061035,-0.854492,0.183105,2025-09-10 08:59:02
1757494742,0.061035,-0.915527,0.183105,2025-09-10 08:59:02
1757494743,0.061035,-0.854492,0.183105,2025-09-10 08:59:03
1757494743,0.061035,-0.854492,0.183105,2025-09-10 08:59:03
1757494743,0.061035,-0.854492,0.183105,2025-09-10 08:59:03
1757494743,0.061035,-0.854492,0.12207,2025-09-10 08:59:03
1757494744,0.061035,-0.854492,0.183105,2025-09-10 08:59:04
1757494744,0.061035,-0.854492,0.183105,2025-09-10 08:59:04
1757494744,0.061035,-0.854492,0.183105,2025-09-10 08:59:04
1757494745,0.061035,-0.854492,0.183105,2025-09-10 08:59:05
1757494745,0.061035,-0.854492,0.183105,2025-09-10 08:59:05
1757494745,0.061035,-0.854492,0.183105,2025-09-10 08:59:05
1757494745,0.061035,-0.854492,0.183105,2025-09-10 08:59:05
1757494746,0.061035,-0.793457,0.183105,2025-09-10 08:59:06
1757494746,0.061035,-0.915527,0.183105,2025-09-10 08:59:06
1757494746,0.061035,-0.915527,0.183105,2025-09-10 08:59:06
1757494747,0.061035,-0.915527,0.12207,2025-09-10 08:59:07
1757494747,0.061035,-0.915527,0.183105,2025-09-10 08:59:07
1757494747,0.061035,-0.854492,0.183105,2025-09-10 08:59:07
1757494747,0.061035,-0.854492,0.183105,2025-09-10 08:59:07
1757494748,0.061035,-0.854492,0.183105,2025-09-10 08:59:08
1757494748,0.12207,-0.854492,0.183105,2025-09-10 08:59:08
1757494748,0.061035,-0.915527,0.183105,2025-09-10 08:59:08
1757494749,0.12207,-0.854492,0.183105,2025-09-10 08:59:09
1757494749,0.061035,-0.854492,0.183105,2025-09-10 08:59:09
1757494749,0.061035,-0.915527,0.183105,2025-09-10 08:59:09
1757494749,0.061035,-0.854492,0.183105,2025-09-10 08:59:09
1757494750,0.061035,-0.854492,0.183105,2025-09-10 08:59:10
1757494750,0.061035,-0.854492,0.183105,2025-09-10 08:59:10
1757494750,0.061035,-0.854492,0.183105,2025-09-10 08:59:10
1757494751,0.061035,-0.854492,0.183105,2025-09-10 08:59:11
1757494751,0.0,-1.098633,0.12207,2025-09-10 08:59:11
1757494751,0.061035,-0.854492,0.183105,2025-09-10 08:59:11
1757494751,0.061035,-0.854492,0.183105,2025-09-10 08:59:11
1757494752,0.061035,-0.915527,0.183105,2025-09-10 08:59:12
1757494752,0.061035,-0.915527,0.183105,2025-09-10 08:59:12
1757494752,0.061035,-0.915527,0.183105,2025-09-10 08:59:12
1757494753,0.061035,-0.854492,0.183105,2025-09-10 08:59:13
1757494753,0.12207,-0.854492,0.183105,2025-09-10 08:59:13
1757494753,0.061035,-0.915527,0.183105,2025-09-10 08:59:13
1757494753,0.061035,-0.915527,0.183105,2025-09-10 08:59:13
1757494754,0.12207,-0.854492,0.183105,2025-09-10 08:59:14
1757494754,0.061035,-0.793457,0.183105,2025-09-10 08:59:14
1757494754,0.061035,-0.854492,0.183105,2025-09-10 08:59:14
1757494755,0.12207,-0.915527,0.183105,2025-09-10 08:59:15
1757494755,0.061035,-0.854492,0.183105,2025-09-10 08:59:15
1757494755,0.061035,-0.854492,0.12207,2025-09-10 08:59:15
1757494756,0.061035,-0.854492,0.183105,2025-09-10 08:59:16
1757494756,0.061035,-0.854492,0.183105,2025-09-10 08:59:16
1757494756,0.061035,-0.915527,0.183105,2025-09-10 08:59:16
1757494757,0.061035,-0.915527,0.183105,2025-09-10 08:59:17
1757494757,0.061035,-0.854492,0.183105,2025-09-10 08:59:17
1757494757,0.061035,-0.915527,0.183105,2025-09-10 08:59:17
1757494757,0.061035,-0.915527,0.183105,2025-09-10 08:59:17
1757494758,0.061035,-0.854492,0.12207,2025-09-10 08:59:18
1757494758,0.12207,-0.854492,0.183105,2025-09-10 08:59:18
1757494758,0.061035,-0.854492,0.183105,2025-09-10 08:59:18
1757494759,0.12207,-0.915527,0.183105,2025-09-10 08:59:19
1757494759,0.061035,-0.915527,0.183105,2025-09-10 08:59:19
1757494759,0.061035,-0.915527,0.183105,2025-09-10 08:59:19
1757494759,0.061035,-0.915527,0.183105,2025-09-10 08:59:19
1757494760,0.061035,-0.915527,0.12207,2025-09-10 08:59:20
1757494760,0.061035,-0.854492,0.183105,2025-09-10 08:59:20
1757494760,0.061035,-0.854492,0.183105,2025-09-10 08:59:20
1757494761,0.061035,-0.854492,0.183105,2025-09-10 08:59:21
1757494761,0.061035,-0.854492,0.183105,2025-09-10 08:59:21
1757494761,0.061035,-0.854492,0.183105,2025-09-10 08:59:21
1757494761,0.061035,-0.915527,0.183105,2025-09-10 08:59:21
1757494762,0.061035,-0.854492,0.183105,2025-09-10 08:59:22
1757494762,0.061035,-0.854492,0.183105,2025-09-10 08:59:22
1757494762,0.061035,-0.915527,0.183105,2025-09-10 08:59:22
1757494763,0.061035,-0.854492,0.183105,2025-09-10 08:59:23
1757494763,0.061035,-0.854492,0.183105,2025-09-10 08:59:23
1757494763,0.061035,-0.854492,0.183105,2025-09-10 08:59:23
1757494763,0.061035,-0.915527,0.183105,2025-09-10 08:59:23
1757494764,0.061035,-0.854492,0.183105,2025-09-10 08:59:24
1757494764,0.061035,-0.854492,0.183105,2025-09-10 08:59:24
1757494764,0.061035,-0.854492,0.183105,2025-09-10 08:59:24
1757494765,0.061035,-0.915527,0.183105,2025-09-10 08:59:25
1757494765,0.12207,-0.854492,0.183105,2025-09-10 08:59:25
1757494765,0.061035,-0.854492,0.183105,2025-09-10 08:59:25
1757494765,0.061035,-0.915527,0.183105,2025-09-10 08:59:25
1757494766,0.061035,-0.915527,0.183105,2025-09-10 08:59:26
1757494766,0.061035,-0.854492,0.183105,2025-09-10 08:59:26
1757494766,0.061035,-0.854492,0.183105,2025-09-10 08:59:26
1757494767,0.12207,-0.854492,0.183105,2025-09-10 08:59:27
1757494767,0.061035,-0.854492,0.183105,2025-09-10 08:59:27
1757494767,0.061035,-0.854492,0.183105,2025-09-10 08:59:27
1757494767,0.061035,-0.854492,0.183105,2025-09-10 08:59:27
1757494768,0.061035,-0.854492,0.183105,2025-09-10 08:59:28
1757494769,0.061035,-0.854492,0.183105,2025-09-10 08:59:29
1757494769,0.061035,-0.915527,0.183105,2025-09-10 08:59:29
1757494769,0.061035,-0.915527,0.183105,2025-09-10 08:59:29
1757494769,0.12207,-0.854492,0.12207,2025-09-10 08:59:29
1757494770,0.061035,-0.915527,0.183105,2025-09-10 08:59:30
1757494770,0.12207,-0.915527,0.12207,2025-09-10 08:59:30
1757494770,0.061035,-0.854492,0.183105,2025-09-10 08:59:30
1757494770,0.061035,-0.854492,0.183105,2025-09-10 08:59:30
1757494771,0.061035,-0.854492,0.183105,2025-09-10 08:59:31
1757494771,0.0,-0.854492,0.183105,2025-09-10 08:59:31
1757494771,0.061035,-0.854492,0.183105,2025-09-10 08:59:31
